File: Example_CV/Co_13_200mV_01_CV_02_CV_02_CV_C01.txt
EC-Lab ASCII FILE
Nb header lines : 53

Cyclic Voltammetry

Run on channel : 1 (SN 24330)
User :
CE vs. WE compliance from -10 V to 10 V
Electrode connection : standard
Ewe ctrl range : min = -2,50 V, max = 2,50 V
Safety Limits :
	Do not start on E overload
Acquisition started on : 10/05/2017 17:30:03
Saved on :
	File : Co_13_200mV_01_CV_02_CV_02_CV_C01.mpr
	Directory : C:\Users\usuario\Documents\EC-Lab\Data\Federico\R=H\CO2 reduction\CV_scan rates CO2_0,4 mM_GC 1mm_5-10-2017\
	Host : 192.168.1.115
Device : VSP (SN 1463)
Address : USB
EC-Lab for windows v11.10 (software)
Internet server v11.10 (firmware)
Command interpretor v11.10 (firmware)
Electrode material :
Initial state :
Electrolyte :
Comments :
Electrode surface area : 0,001 cm²
Characteristic mass : 0,001 g
Equivalent Weight : 0,000 g/eq.
Density : 0,000 g/cm3
Ei (V)              0,100
vs.                 Ref
dE/dt               200,000
dE/dt unit          mV/s
E1 (V)              -1,870
vs.                 Ref
Step percent        50
N                   20
E range min (V)     -2,500
E range max (V)     2,500
I Range             Auto
I Range min         Unset
I Range max         Unset
I Range init        Unset
Bandwidth           5
E2 (V)              1,000
vs.                 Ref
nc cycles           0
Reverse Scan        1
Ef (V)              0,000
vs.                 Ref

mode	ox/red	error	control changes	counter inc.	time/s	control/V	Ewe/V	<I>/mA	cycle number	(Q-Qo)/C	Rcmp/Ohm	P/W
2	0	0	0	0	2,2732	0,0999838337	0,100583836	0,0002801434602588415	1	0	338,910065	2,81779045E-008
2	0	0	1	0	2,3395	0,0867237821	0,0861202851	-5,2718789845834342E-005	1	-3,14374304E-009	338,910034	4,54015714E-009
2	0	0	1	0	2,4115	0,0723237917	0,0717258081	-5,705567493576144E-005	1	-6,91268331E-009	338,910034	4,09236423E-009
2	0	0	1	0	2,4835	0,0579237938	0,0572991557	-6,100141883224361E-005	1	-1,10192602E-008	338,910034	3,4953298E-009
2	0	0	1	0	2,5555	0,0435238071	0,0428818278	-6,7244589899429568E-005	1	-1,54572675E-008	338,910034	2,88357094E-009
2	0	0	1	0	2,6275	0,0291238092	0,028460471	-7,0380419306534464E-005	1	-2,02157366E-008	338,910034	2,00305994E-009
2	0	0	1	0	2,6995	0,0147238178	0,014104967	-7,5744989078330253E-005	1	-2,5296762E-008	338,910034	1,06838061E-009
2	0	0	1	0	2,7715	0,000323823886	-0,000327947462	-8,0255253745339136E-005	1	-3,0714336E-008	338,910034	2,63195073E-011
2	0	0	1	0	2,8435	-0,0140761826	-0,0148176784	-8,5636576354692749E-005	1	-3,64916808E-008	338,910034	1,26893529E-009
2	0	0	1	0	2,9155	-0,028476188	-0,0292531215	-9,1006166235573517E-005	1	-4,26180797E-008	338,910034	2,66221445E-009
2	0	0	1	0	2,9875	-0,0428761989	-0,0436031111	-9,4991278487305421E-005	1	-4,91026313E-008	338,910034	4,14191526E-009
2	0	0	1	0	3,0595	-0,0572761968	-0,0580345206	-0,00010053508503616269	1	-5,59564377E-008	338,910034	5,83450532E-009
2	0	0	1	0	3,1315	-0,0716762021	-0,0724277496	-0,00010582846885111834	1	-6,31760528E-008	338,910034	7,66491759E-009
2	0	0	1	0	3,2035	-0,0860762149	-0,0868234709	-0,00011011091397237984	1	-7,07464736E-008	338,910034	9,56021218E-009
2	0	0	1	0	3,2755	-0,100476228	-0,101237297	-0,00011504581471243838	1	-7,86533292E-008	338,910034	1,1646927E-008
2	0	0	1	0	3,3475	-0,114876248	-0,115618967	-0,00011867496327536013	1	-8,68845618E-008	338,910034	1,37210767E-008
2	0	0	1	0	3,4195	-0,129276246	-0,129965916	-0,00012355123597648093	1	-9,54156434E-008	338,910034	1,60574487E-008
2	0	0	1	0	3,4915	-0,143676236	-0,14439334	-0,00012617195917547939	1	-1,04223048E-007	338,910034	1,82183904E-008
2	0	0	1	0	3,5635	-0,158076242	-0,158775225	-0,00012993847653469389	1	-1,13285239E-007	338,910034	2,06310116E-008
2	0	0	1	0	3,6355	-0,172476247	-0,173210427	-0,00013351485132648451	1	-1,22580374E-007	338,910034	2,31261641E-008
2	0	0	1	0	3,7075	-0,186876252	-0,187553138	-0,00013597309416661694	1	-1,32081794E-007	338,910034	2,55021799E-008
2	0	0	1	0	3,7795	-0,201276243	-0,202013478	-0,0001384430538833891	1	-1,41774507E-007	338,910034	2,79673635E-008
2	0	0	1	0	3,8515	-0,215676263	-0,216344848	-0,00014092307451033058	1	-1,51634751E-007	338,910034	3,04879819E-008
2	0	0	1	0	3,9235	-0,230076268	-0,230792403	-0,00014296839455247429	1	-1,61658534E-007	338,910034	3,29960201E-008
2	0	0	1	0	3,9955	-0,244476274	-0,245165989	-0,00014528425445329565	1	-1,7183919E-007	338,910034	3,56187577E-008
2	0	0	1	0	4,0675	-0,258876294	-0,259588897	-0,00014726172569405485	1	-1,82189623E-007	338,910034	3,82275083E-008
2	0	0	1	0	4,1395	-0,273276299	-0,273954451	-0,00015009352099089821	1	-1,92715646E-007	338,910034	4,11187884E-008
2	0	0	1	0	4,2115	-0,287676275	-0,288368285	-0,00015316485615513539	1	-2,03436031E-007	338,910034	4,41678871E-008
2	0	0	1	0	4,2835	-0,30207631	-0,302783102	-0,00015587100565745315	1	-2,14370459E-007	338,910034	4,71951083E-008
2	0	0	1	0	4,3555	-0,316476315	-0,317178339	-0,0001591919278650905	1	-2,25524417E-007	338,910034	5,04922326E-008
2	0	0	1	0	4,4275	-0,330876321	-0,331570029	-0,00016085364539545136	1	-2,36883082E-007	338,910034	5,33342472E-008
2	0	0	1	0	4,4995	-0,345276326	-0,345986873	-0,00016327838166692976	1	-2,48408185E-007	338,910034	5,64921763E-008
2	0	0	1	0	4,5715	-0,359676331	-0,36033839	-0,00016462266897003226	1	-2,60047358E-007	338,910034	5,93198664E-008
2	0	0	1	0	4,6435	-0,374076337	-0,37476629	-0,000165018838025956	1	-2,71757898E-007	338,910034	6,1843501E-008
2	0	0	1	0	4,7155	-0,388476342	-0,38918063	-0,00016632793524980986	1	-2,83495751E-007	338,910034	6,47316085E-008
2	0	0	1	0	4,7875	-0,402876347	-0,403563768	-0,00016600380656216131	1	-2,95256456E-007	338,910034	6,69931239E-008
2	0	0	1	0	4,8595	-0,417276353	-0,417978615	-0,00016658757881546816	1	-3,07044388E-007	338,910034	6,96300475E-008
2	0	0	1	0	4,9315	-0,431676358	-0,432390988	-0,000166530635060992	1	-3,18871258E-007	338,910034	7,2006344E-008
2	0	0	1	0	5,0035	-0,446076423	-0,446745455	-0,00016732211746996182	1	-3,30751192E-007	338,910034	7,47503961E-008
2	0	0	1	0	5,0755	-0,460476339	-0,461174875	-0,00016892856243936813	1	-3,42700162E-007	338,910034	7,79056109E-008
2	0	0	1	0	5,1475	-0,474876374	-0,475577146	-0,00016989091511532576	1	-3,54717457E-007	338,910034	8,07962337E-008
2	0	0	1	0	5,2195	-0,489276409	-0,489960253	-0,00017122347143963632	1	-3,6680936E-007	338,910034	8,38926937E-008
2	0	0	1	0	5,2915	-0,503676414	-0,50433743	-0,00017161377869350534	1	-3,7897189E-007	338,910034	8,65512533E-008
2	0	0	1	0	5,3635	-0,51807642	-0,518723547	-0,00017209201882407642	1	-3,91201894E-007	338,910034	8,9268184E-008
2	0	0	1	0	5,4355	-0,532476425	-0,533144951	-0,0001737495503651809	1	-4,03495562E-007	338,910034	9,2633698E-008
2	0	0	1	0	5,5075	-0,546876431	-0,547577381	-0,00017378976831064582	1	-4,15848092E-007	338,910034	9,51633439E-008
2	0	0	1	0	5,5795	-0,561276436	-0,561918318	-0,00017476384542241994	1	-4,28248967E-007	338,910034	9,82030031E-008
2	0	0	1	0	5,6515	-0,575676441	-0,576354742	-0,00017622286987604813	1	-4,40701541E-007	338,910034	1,0156689E-007
2	0	0	1	0	5,7235	-0,590076447	-0,590732872	-0,00017623292819435917	1	-4,53194616E-007	338,910034	1,04106583E-007
2	0	0	1	0	5,7955	-0,604476452	-0,605136752	-0,0001772145417362472	1	-4,65728931E-007	338,910034	1,07239032E-007
2	0	0	1	0	5,8675	-0,618876457	-0,619529843	-0,0001771433492852967	1	-4,78305992E-007	338,910034	1,09745592E-007
2	0	0	1	0	5,9395	-0,633276463	-0,6339463	-0,00017740467180908746	1	-4,90926482E-007	338,910034	1,12465038E-007
2	0	0	1	0	6,0115	-0,647676468	-0,648321331	-0,00017876654731764032	1	-5,03590456E-007	338,910034	1,15898168E-007
2	0	0	1	0	6,0835	-0,662076473	-0,662749767	-0,00017903121443539875	1	-5,1630866E-007	338,910034	1,18652899E-007
2	0	0	1	0	6,1555	-0,676476479	-0,677127421	-0,00018073061977275398	1	-5,29086151E-007	338,910034	1,22377656E-007
2	0	0	1	0	6,2275	-0,690876484	-0,691540301	-0,00018133701867359421	1	-5,41928955E-007	338,910034	1,25401854E-007
2	0	0	1	0	6,2995	-0,705276489	-0,705914855	-0,00018216536424512947	1	-5,54843382E-007	338,910034	1,28593243E-007
2	0	0	1	0	6,3715	-0,719676495	-0,720335722	-0,00018370396332114237	1	-5,67839038E-007	338,910034	1,32328523E-007
2	0	0	1	0	6,4435	-0,7340765	-0,734732389	-0,00018380194621003299	1	-5,80909614E-007	338,910034	1,35045241E-007
2	0	0	1	0	6,5155	-0,748476505	-0,749171972	-0,0001857409072371991	1	-5,94057894E-007	338,910034	1,39151879E-007
2	0	0	1	0	6,5875	-0,762876511	-0,763516426	-0,00018641262980417274	1	-6,07283198E-007	338,910034	1,423291E-007
2	0	0	1	0	6,6595	-0,777276516	-0,777935266	-0,00018819411939885974	1	-6,20583307E-007	338,910034	1,4640284E-007
2	0	0	1	0	6,7315	-0,791676521	-0,792319417	-0,00018990525427597504	1	-6,33983404E-007	338,910034	1,50465624E-007
2	0	0	1	0	6,8035	-0,806076527	-0,80671972	-0,00019129727555185997	1	-6,47511911E-007	338,910034	1,54323288E-007
2	0	0	1	0	6,8755	-0,820476592	-0,821111917	-0,00019504619310059187	1	-6,61231923E-007	338,910034	1,60154755E-007
2	0	0	1	0	6,9475	-0,834876537	-0,835621178	-0,0001991795457127552	1	-6,75249964E-007	338,910034	1,66438653E-007
2	0	0	1	0	7,0195	-0,849276602	-0,850044131	-0,00020612963124066368	1	-6,89669093E-007	338,910034	1,75219284E-007
2	0	0	1	0	7,0915	-0,863676548	-0,864426196	-0,0002182407444722696	1	-7,04750505E-007	338,910034	1,88653019E-007
2	0	0	1	0	7,1635	-0,878076613	-0,878800809	-0,00023658079820913693	1	-7,20894661E-007	338,910034	2,07907391E-007
2	0	0	1	0	7,2355	-0,892476678	-0,893223166	-0,0002691325862542713	1	-7,38806818E-007	338,910034	2,40395451E-007
2	0	0	1	0	7,3075	-0,906876624	-0,907590568	-0,0003206190677310745	1	-7,59715761E-007	338,910034	2,9099084E-007
2	0	0	1	0	7,3795	-0,921276689	-0,921996415	-0,0004133746370036167	1	-7,85771704E-007	338,910034	3,81129922E-007
2	0	0	1	0	7,4515	-0,935676634	-0,936371267	-0,00056913820642142016	1	-8,20581079E-007	338,910034	5,32924673E-007
2	0	0	1	0	7,5235	-0,950076699	-0,950779557	-0,00081094344320438618	1	-8,69600569E-007	338,910034	7,71028454E-007
2	0	0	1	0	7,5955	-0,964476585	-0,965203464	-0,0011492649615128768	1	-9,39570327E-007	338,910034	1,10927454E-006
2	0	0	1	0	7,6675	-0,978876591	-0,97960639	-0,0015375819739666397	1	-1,03613127E-006	338,910034	1,50622509E-006
2	0	0	1	0	7,7395	-0,993276656	-0,994017541	-0,0018768942198444557	1	-1,15958278E-006	338,910034	1,86566581E-006
2	0	0	1	0	7,8115	-1,0076766	-1,00836253	-0,0020652573928824003	1	-1,30242768E-006	338,910034	2,08252823E-006
2	0	0	1	0	7,8835	-1,02207661	-1,02276707	-0,0020823964785513552	1	-1,45253989E-006	338,910034	2,12980649E-006
2	0	0	1	0	7,9555	-1,03647661	-1,03716969	-0,0019926945525073363	1	-1,59952083E-006	338,910034	2,06676236E-006
2	0	0	1	0	8,0275	-1,05087662	-1,05159676	-0,0018620920669140096	1	-1,73819524E-006	338,910034	1,95817006E-006
2	0	0	1	0	8,0995	-1,06527662	-1,06595945	-0,0017346582134083811	1	-1,86739987E-006	338,910034	1,84907537E-006
2	0	0	1	0	8,1715	-1,07967663	-1,08035076	-0,0016223070475270413	1	-1,987941E-006	338,910034	1,75266064E-006
2	0	0	1	0	8,2435	-1,09407663	-1,09480011	-0,0015280479971663299	1	-2,1010685E-006	338,910034	1,67290716E-006
2	0	0	1	0	8,3155	-1,10847676	-1,10917485	-0,0014512848079631693	1	-2,20804418E-006	338,910034	1,60972866E-006
2	0	0	1	0	8,3875	-1,12287664	-1,12355494	-0,001387185570916029	1	-2,30999444E-006	338,910034	1,55857924E-006
2	0	0	1	0	8,4595	-1,13727665	-1,13796985	-0,0013359838550186685	1	-2,40784334E-006	338,910034	1,5203093E-006
2	0	0	1	0	8,5315	-1,15167665	-1,15234423	-0,0012951988131677795	1	-2,50238804E-006	338,910034	1,49251491E-006
2	0	0	1	0	8,6035	-1,16607654	-1,16676843	-0,0012617090477473736	1	-2,59428498E-006	338,910034	1,47212234E-006
2	0	0	1	0	8,6755	-1,18047667	-1,18115962	-0,0012385882302958984	1	-2,6841285E-006	338,910034	1,46297043E-006
2	0	0	1	0	8,7475	-1,19487667	-1,19557655	-0,0012194314812994898	1	-2,77242953E-006	338,910034	1,45792364E-006
2	0	0	1	0	8,8195	-1,20927668	-1,20995414	-0,0012072575856635798	1	-2,85961278E-006	338,910034	1,46072637E-006
2	0	0	1	0	8,8915	-1,22367668	-1,22435725	-0,0011991910968661778	1	-2,94606798E-006	338,910034	1,46823834E-006
2	0	0	1	0	8,9635	-1,23807669	-1,23874354	-0,0011942452218359594	1	-3,0320889E-006	338,910034	1,4793635E-006
2	0	0	1	0	9,0355	-1,25247681	-1,25314677	-0,0011937670569511107	1	-3,11790632E-006	338,910034	1,49596531E-006
2	0	0	1	0	9,1075	-1,2668767	-1,26749456	-0,0011940099407343475	1	-3,20369895E-006	338,910034	1,51340112E-006
2	0	0	1	0	9,1795	-1,2812767	-1,28196836	-0,0011971322918996728	1	-3,28964575E-006	338,910034	1,53468568E-006
2	0	0	1	0	9,2515	-1,29567671	-1,29634535	-0,0012039358372787366	1	-3,37593724E-006	338,910034	1,56071667E-006
2	0	0	1	0	9,3235	-1,31007659	-1,31074584	-0,0012125827832661294	1	-3,4627833E-006	338,910034	1,58938781E-006
2	0	0	1	0	9,3955	-1,32447672	-1,32512593	-0,0012261370061184379	1	-3,55044699E-006	338,910034	1,62478591E-006
2	0	0	1	0	9,4675	-1,33887672	-1,33956194	-0,0012438161903733717	1	-3,63922845E-006	338,910034	1,66616883E-006
2	0	0	1	0	9,5395	-1,35327673	-1,3539139	-0,0012678039231998251	1	-3,72950785E-006	338,910034	1,71649731E-006
2	0	0	1	0	9,6115	-1,36767673	-1,36834359	-0,0012980331298182886	1	-3,82172811E-006	338,910034	1,77615527E-006
2	0	0	1	0	9,6835	-1,38207674	-1,38272321	-0,0013346696347916603	1	-3,91636377E-006	338,910034	1,84547866E-006
2	0	0	1	0	9,7555	-1,39647686	-1,39714026	-0,0013812999802946258	1	-4,01401348E-006	338,910034	1,92986977E-006
2	0	0	1	0	9,8275	-1,41087675	-1,41149032	-0,0014372791686646531	1	-4,11531619E-006	338,910034	2,02870569E-006
2	0	0	1	0	9,8995	-1,42527664	-1,42593801	-0,0015032846943205635	1	-4,2210022E-006	338,910034	2,14359079E-006
2	0	0	1	0	9,9715	-1,43967676	-1,44033253	-0,0015835178832706813	1	-4,33195737E-006	338,910034	2,28079239E-006
2	0	0	1	0	10,0435	-1,45407677	-1,4547708	-0,0016783774343613818	1	-4,44914531E-006	338,910034	2,44165449E-006
2	0	0	1	0	10,1155	-1,46847677	-1,46911633	-0,0017993906435948266	1	-4,57405849E-006	338,910034	2,64351411E-006
2	0	0	1	0	10,1875	-1,4828769	-1,48350275	-0,0019569046959204765	1	-4,7089452E-006	338,910034	2,90307344E-006
2	0	0	1	0	10,2595	-1,49727678	-1,49790001	-0,0021650577140015869	1	-4,85698502E-006	338,910034	3,24304006E-006
2	0	0	1	0	10,3315	-1,51167679	-1,51231873	-0,0024280633559962752	1	-5,02199237E-006	338,910034	3,67200573E-006
2	0	0	1	0	10,4035	-1,52607679	-1,52669132	-0,0027306283309052742	1	-5,20745789E-006	338,910034	4,16882676E-006
2	0	0	1	0	10,4755	-1,54047692	-1,54109168	-0,0030564443066300186	1	-5,41565942E-006	338,910034	4,71026078E-006
2	0	0	1	0	10,5475	-1,55487692	-1,55549848	-0,0033889957749284166	1	-5,64759512E-006	338,910034	5,27157772E-006
2	0	0	1	0	10,6195	-1,56927693	-1,56987345	-0,0037298759408785043	1	-5,90378295E-006	338,910034	5,8554333E-006
2	0	0	1	0	10,6915	-1,58367682	-1,58426607	-0,0040863449270737293	1	-6,18505192E-006	338,910034	6,47385741E-006
2	0	0	1	0	10,7635	-1,59807694	-1,59867573	-0,0044607395309612314	1	-6,49263211E-006	338,910034	7,13127611E-006
2	0	0	1	0	10,8355	-1,61247683	-1,61308801	-0,0048573432325435398	1	-6,82796735E-006	338,910034	7,83532232E-006
2	0	0	1	0	10,9075	-1,62687695	-1,62747598	-0,0052708283393784333	1	-7,19243462E-006	338,910034	8,57814666E-006
2	0	0	1	0	10,9795	-1,64127684	-1,64198864	-0,0057053857564919456	1	-7,58725719E-006	338,910034	9,36817833E-006
2	0	0	1	0	11,0515	-1,65567696	-1,65637267	-0,0061406048115346944	1	-8,0135078E-006	338,910034	1,01711303E-005
2	0	0	1	0	11,1235	-1,67007709	-1,67075944	-0,006578882277002176	1	-8,47133651E-006	338,910034	1,09917301E-005
2	0	0	1	0	11,1955	-1,68447685	-1,68511665	-0,0070140702607699162	1	-8,96071288E-006	338,910034	1,18195267E-005
2	0	0	1	0	11,2675	-1,6988771	-1,69954896	-0,007429833150174647	1	-9,4808338E-006	338,910034	1,26273653E-005
2	0	0	1	0	11,3395	-1,7132771	-1,71395612	-0,0078121249368306586	1	-1,00298348E-005	338,910034	1,33896392E-005
2	0	0	1	0	11,4115	-1,72767699	-1,72837842	-0,0081363681569391616	1	-1,06043271E-005	338,910034	1,40627235E-005
2	0	0	1	0	11,4835	-1,74207687	-1,74272764	-0,0083873149425862106	1	-1,11996023E-005	338,910034	1,46168059E-005
2	0	0	1	0	11,5555	-1,75647712	-1,75715899	-0,0085555698638097869	1	-1,18099297E-005	338,910034	1,50334963E-005
2	0	0	1	0	11,6275	-1,77087712	-1,77152336	-0,0086412307045655718	1	-1,24293083E-005	338,910034	1,53081419E-005
2	0	0	1	0	11,6995	-1,78527701	-1,78596759	-0,0086619614835638797	1	-1,30524249E-005	338,910034	1,54699828E-005
2	0	0	1	0	11,7715	-1,79967701	-1,80032718	-0,008640789727475145	1	-1,36753824E-005	338,910034	1,55562484E-005
2	0	0	1	0	11,8435	-1,81407714	-1,81473076	-0,0085932100926966669	1	-1,42957078E-005	338,910034	1,55943635E-005
2	0	0	1	0	11,9155	-1,82847691	-1,82909751	-0,0085443512626194598	1	-1,49124853E-005	338,910034	1,56284514E-005
2	0	0	1	0	11,9875	-1,84287703	-1,84355509	-0,0084976387780650726	1	-1,55257476E-005	338,910034	1,56658643E-005
2	0	0	1	0	12,0595	-1,85727704	-1,8579073	-0,00846399112905552	1	-1,61360967E-005	338,910034	1,57253107E-005
2	0	0	1	0	12,1230	-1,87001598	-1,87071764	-0,0084866797551512717	1	-1,66727914E-005	338,910065	1,58761814E-005
2	1	0	1	0	12,1779	-1,85901737	-1,85956812	-0,0075894586473607411	1	-1,71086213E-005	338,910034	1,4113115E-005
2	1	0	1	0	12,2499	-1,84461725	-1,84517574	-0,0069028326544324506	1	-1,76290705E-005	338,910034	1,27369394E-005
2	1	0	1	0	12,3219	-1,83021712	-1,83084977	-0,0063546093063274739	1	-1,81056785E-005	338,910034	1,16343354E-005
2	1	0	1	0	12,3939	-1,81581736	-1,81634629	-0,0058857907472229939	1	-1,85458903E-005	338,910034	1,06906346E-005
2	1	0	1	0	12,4659	-1,80141711	-1,80201793	-0,0054715374748762758	1	-1,89544317E-005	338,910034	9,85980842E-006
2	1	0	1	0	12,5379	-1,78701723	-1,78757918	-0,0051064584219139686	1	-1,93350097E-005	338,910034	9,12819905E-006
2	1	0	1	0	12,6099	-1,77261722	-1,77319169	-0,0047830114196441914	1	-1,96907786E-005	338,910034	8,48119635E-006
2	1	0	1	0	12,6819	-1,75821733	-1,7588197	-0,0044959866405852934	1	-2,00245704E-005	338,910034	7,90762988E-006
2	1	0	1	0	12,7539	-1,74381733	-1,74442899	-0,0042434963488949965	1	-2,03389864E-005	338,910034	7,40247788E-006
2	1	0	1	0	12,8259	-1,7294172	-1,72999895	-0,0040188986305637574	1	-2,06362893E-005	338,910034	6,95269046E-006
2	1	0	1	0	12,8979	-1,7150172	-1,71564138	-0,003821858511321129	1	-2,09184545E-005	338,910034	6,55693839E-006
2	1	0	1	0	12,9699	-1,70061719	-1,70120597	-0,0036422142737839482	1	-2,11871011E-005	338,910034	6,19615685E-006
2	1	0	1	0	13,0419	-1,68621731	-1,68684709	-0,0034716302716812019	1	-2,14431948E-005	338,910034	5,85610951E-006
2	1	0	1	0	13,1139	-1,67181718	-1,67244315	-0,0033055211852593971	1	-2,16872177E-005	338,910034	5,52829624E-006
2	1	0	1	0	13,1859	-1,65741718	-1,65805924	-0,0031336805816368704	1	-2,19190715E-005	338,910034	5,19582818E-006
2	1	0	1	0	13,2579	-1,64301717	-1,64365578	-0,0029510724311158502	1	-2,21381924E-005	338,910034	4,85054716E-006
2	1	0	1	0	13,3299	-1,62861729	-1,62914014	-0,0027558372545300019	1	-2,23436418E-005	338,910034	4,48964511E-006
2	1	0	1	0	13,4019	-1,61421704	-1,61473978	-0,0025493401961986656	1	-2,25347558E-005	338,910034	4,11652081E-006
2	1	0	1	0	13,4739	-1,59981704	-1,60037136	-0,0023371044409877597	1	-2,27107303E-005	338,910034	3,74023512E-006
2	1	0	1	0	13,5459	-1,58541715	-1,58590591	-0,0021144347279723091	1	-2,28710214E-005	338,910034	3,35329446E-006
2	1	0	1	0	13,6179	-1,57101703	-1,57157183	-0,0018919568469994566	1	-2,30152855E-005	338,910034	2,973346E-006
2	1	0	1	0	13,6899	-1,55661714	-1,55713677	-0,0016709298911257235	1	-2,31435133E-005	338,910034	2,6018663E-006
2	1	0	1	0	13,7619	-1,54221702	-1,5427475	-0,0014546249789051706	1	-2,32559778E-005	338,910034	2,24411906E-006
2	1	0	1	0	13,8339	-1,52781713	-1,52834332	-0,001249566119727921	1	-2,33532428E-005	338,910034	1,90976607E-006
2	1	0	1	0	13,9059	-1,51341701	-1,51395786	-0,0010576391750873882	1	-2,34362105E-005	338,910034	1,60122113E-006
2	1	0	1	0	13,9779	-1,499017	-1,49953949	-0,00088492677989786099	1	-2,35060888E-005	338,910034	1,32698267E-006
2	1	0	1	0	14,0499	-1,48461711	-1,48516989	-0,00073334849367200602	1	-2,35642256E-005	338,910034	1,08914708E-006
2	1	0	1	0	14,1219	-1,47021711	-1,47079265	-0,00060174359265274726	1	-2,36121814E-005	338,910034	8,85040038E-007
2	1	0	1	0	14,1939	-1,45581698	-1,45637953	-0,00049211951944558944	1	-2,36514315E-005	338,910034	7,16712805E-007
2	1	0	1	0	14,2659	-1,44141698	-1,44201517	-0,00039789903299255328	1	-2,36833876E-005	338,910034	5,73776447E-007
2	1	0	1	0	14,3379	-1,42701697	-1,42760026	-0,00032129496560572435	1	-2,37092918E-005	338,910034	4,58680773E-007
2	1	0	1	0	14,4099	-1,41261709	-1,41321754	-0,00026013719261236195	1	-2,37301811E-005	338,910034	3,67630435E-007
2	1	0	1	0	14,4819	-1,39821696	-1,39878881	-0,00020766236057050656	1	-2,37469594E-005	338,910034	2,90475782E-007
2	1	0	1	0	14,5539	-1,38381696	-1,38439584	-0,0001662433469790431	1	-2,37604036E-005	338,910034	2,30146597E-007
2	1	0	1	0	14,6259	-1,36941695	-1,36995566	-0,00013237075285731179	1	-2,37711411E-005	338,910034	1,8134206E-007
2	1	0	1	0	14,6979	-1,35501683	-1,35559988	-0,00010481920535491854	1	-2,37797085E-005	338,910034	1,42092901E-007
2	1	0	1	0	14,7699	-1,34061694	-1,34121192	-8,4755457720575142E-005	1	-2,37865625E-005	338,910034	1,13675029E-007
2	1	0	1	0	14,8419	-1,32621694	-1,32683074	-6,6386097598212595E-005	1	-2,37920394E-005	338,910034	8,80831124E-008
2	1	0	1	0	14,9139	-1,31181681	-1,31239927	-5,3993556726457965E-005	1	-2,37964214E-005	338,910034	7,08611054E-008
2	1	0	1	0	14,9859	-1,29741693	-1,29801059	-4,259436451921968E-005	1	-2,37999375E-005	338,910034	5,52879378E-008
2	1	0	1	0	15,0579	-1,28301692	-1,28364289	-3,3492600022947706E-005	1	-2,38027369E-005	338,910034	4,29925393E-008
2	1	0	1	0	15,1299	-1,2686168	-1,26920116	-2,6702500156934563E-005	1	-2,38049543E-005	338,910034	3,38908457E-008
2	1	0	1	0	15,2019	-1,25421691	-1,25480175	-1,9616743383590493E-005	1	-2,3806675E-005	338,910034	2,46151242E-008
2	1	0	1	0	15,2739	-1,23981702	-1,24037635	-1,4232907816974678E-005	1	-2,38079465E-005	338,910034	1,76541626E-008
2	1	0	1	0	15,3459	-1,2254169	-1,22601783	-9,2561256082112986E-006	1	-2,3808836E-005	338,910034	1,13481748E-008
2	1	0	1	0	15,4179	-1,21101689	-1,21163273	-4,0155131668116512E-006	1	-2,38093708E-005	338,910034	4,86532725E-009
2	1	0	1	0	15,4899	-1,19661689	-1,19724512	-1,7231112445508522E-006	1	-2,38096036E-005	338,910034	2,06298645E-009
2	1	0	1	0	15,5619	-1,182217	-1,18283916	3,3106242753838899E-006	1	-2,38095727E-005	338,910034	3,91593602E-009
2	1	0	1	0	15,6339	-1,16781688	-1,16840971	5,8241414462585178E-006	1	-2,38092998E-005	338,910034	6,80498324E-009
2	1	0	1	0	15,7059	-1,15341687	-1,15399301	8,1986238324207168E-006	1	-2,38088323E-005	338,910034	9,46115453E-009
2	1	0	1	0	15,7779	-1,13901687	-1,13963234	1,0545466169023728E-005	1	-2,38082066E-005	338,910034	1,20179546E-008
2	1	0	1	0	15,8499	-1,12461686	-1,12523723	1,1857084997615856E-005	1	-2,38074244E-005	338,910034	1,33420333E-008
2	1	0	1	0	15,9219	-1,11021686	-1,11080587	1,3741595147920208E-005	1	-2,38065168E-005	338,910034	1,5264245E-008
2	1	0	1	0	15,9939	-1,09581697	-1,09645414	1,5667982930030525E-005	1	-2,38054781E-005	338,910034	1,71792252E-008
2	1	0	1	0	16,0659	-1,08141685	-1,08201718	1,7969596834252435E-005	1	-2,3804294E-005	338,910034	1,94434122E-008
2	1	0	1	0	16,1379	-1,06701684	-1,0676353	2,1423695015873277E-005	1	-2,38029443E-005	338,910034	2,28726922E-008
2	1	0	1	0	16,2099	-1,05261695	-1,05324066	2,2952240026360352E-005	1	-2,38014072E-005	338,910034	2,41742324E-008
2	1	0	1	0	16,2819	-1,03821683	-1,03881931	2,7083086785782349E-005	1	-2,37996373E-005	338,910034	2,81344334E-008
2	1	0	1	0	16,3539	-1,02381682	-1,02446449	3,0794315043979027E-005	1	-2,37975983E-005	338,910034	3,15476818E-008
2	1	0	1	0	16,4259	-1,00941682	-1,01006138	3,431122707690576E-005	1	-2,37952463E-005	338,910034	3,46564448E-008
2	1	0	1	0	16,4979	-0,995016754	-0,995661795	3,9557705267057338E-005	1	-2,37925742E-005	338,910034	3,93860944E-008
2	1	0	1	0	16,5699	-0,980616808	-0,981270194	4,3274796491226099E-005	1	-2,37895911E-005	338,910034	4,24642685E-008
2	1	0	1	0	16,6419	-0,966216743	-0,966880977	4,7677010162747309E-005	1	-2,37863096E-005	338,910034	4,60979948E-008
2	1	0	1	0	16,7139	-0,951816857	-0,952456594	5,0522200022117254E-005	1	-2,3782768E-005	338,910034	4,81202029E-008
2	1	0	1	0	16,7859	-0,937416792	-0,938022077	5,3622846926353536E-005	1	-2,37790046E-005	338,910034	5,02994126E-008
2	1	0	1	0	16,8579	-0,923016667	-0,923690259	5,6924510870889946E-005	1	-2,37750319E-005	338,910034	5,25806172E-008
2	1	0	1	0	16,9299	-0,908616781	-0,909261286	5,8234452254418266E-005	1	-2,37708973E-005	338,910034	5,29503339E-008
2	1	0	1	0	17,0019	-0,894216657	-0,894879162	6,0551144182833523E-005	1	-2,37666191E-005	338,910034	5,41859571E-008
2	1	0	1	0	17,0739	-0,879816771	-0,880479038	6,1669282950716326E-005	1	-2,3762208E-005	338,910034	5,42985106E-008
2	1	0	1	0	17,1459	-0,865416646	-0,866061091	6,3383769572598566E-005	1	-2,37576933E-005	338,910034	5,48942154E-008
2	1	0	1	0	17,2179	-0,85101676	-0,851691484	6,4842802322373862E-005	1	-2,37530858E-005	338,910034	5,52260637E-008
2	1	0	1	0	17,2899	-0,836616814	-0,837294221	6,5060567645528269E-005	1	-2,37484073E-005	338,910034	5,44748389E-008
2	1	0	1	0	17,3619	-0,822216749	-0,822786331	6,8147810881319949E-005	1	-2,37436543E-005	338,910034	5,60710873E-008
2	1	0	1	0	17,4339	-0,807816744	-0,808413267	6,6937538028904179E-005	1	-2,37388304E-005	338,910034	5,41131939E-008
2	1	0	1	0	17,5059	-0,793416679	-0,793955803	6,7426676436031526E-005	1	-2,37339609E-005	338,910034	5,35337996E-008
2	1	0	1	0	17,5779	-0,779016614	-0,779587209	6,8929257874890893E-005	1	-2,37290315E-005	338,910034	5,37363682E-008
2	1	0	1	0	17,6499	-0,764616668	-0,76520896	6,8808650234742144E-005	1	-2,3724042E-005	338,910034	5,26529966E-008
2	1	0	1	0	17,7219	-0,750216722	-0,750842929	7,0828003714495936E-005	1	-2,37189943E-005	338,910034	5,31807061E-008
2	1	0	1	0	17,7939	-0,735816717	-0,736391366	7,1254318228104973E-005	1	-2,37138884E-005	338,910034	5,24710657E-008
2	1	0	1	0	17,8659	-0,721416712	-0,721989036	7,2584364070300621E-005	1	-2,37087188E-005	338,910034	5,24051167E-008
2	1	0	1	0	17,9379	-0,707016647	-0,707642198	7,2974674054649075E-005	1	-2,37034892E-005	338,910034	5,16399581E-008
2	1	0	1	0	18,0099	-0,692616701	-0,693191648	7,3122915206400614E-005	1	-2,36982032E-005	338,910034	5,06881932E-008
2	1	0	1	0	18,0819	-0,678216577	-0,678834558	7,498983693933481E-005	1	-2,36928554E-005	338,910034	5,09056939E-008
2	1	0	1	0	18,1539	-0,663816631	-0,66437906	7,5380981873227366E-005	1	-2,36874403E-005	338,910034	5,0081546E-008
2	1	0	1	0	18,2259	-0,649416625	-0,649989784	7,6144830111907264E-005	1	-2,36819651E-005	338,910034	4,94933623E-008
2	1	0	1	0	18,2979	-0,635016561	-0,635603666	7,7536023006156122E-005	1	-2,36764263E-005	338,910034	4,92821819E-008
2	1	0	1	0	18,3699	-0,620616615	-0,621180296	7,7378563984989914E-005	1	-2,36708238E-005	338,910034	4,80660383E-008
2	1	0	1	0	18,4419	-0,606216609	-0,606829822	7,9417178696667085E-005	1	-2,36651558E-005	338,910034	4,81927138E-008
2	1	0	1	0	18,5139	-0,591816604	-0,592412949	8,0074664503782797E-005	1	-2,36594169E-005	338,910034	4,74372683E-008
2	1	0	1	0	18,5859	-0,577416599	-0,578021705	8,1441561203439693E-005	1	-2,36536125E-005	338,910034	4,7074991E-008
2	1	0	1	0	18,6579	-0,563016593	-0,563595414	8,2429885956097075E-005	1	-2,36477354E-005	338,910034	4,64571066E-008
2	1	0	1	0	18,7299	-0,548616648	-0,549208701	8,2662728538364621E-005	1	-2,36417909E-005	338,910034	4,53990907E-008
2	1	0	1	0	18,8019	-0,534216583	-0,5347808	8,4044699197225203E-005	1	-2,36357719E-005	338,910034	4,49454909E-008
2	1	0	1	0	18,8739	-0,519816577	-0,520412207	8,5402382220417037E-005	1	-2,36296728E-005	338,910034	4,4444441E-008
2	1	0	1	0	18,9459	-0,505416572	-0,506019533	8,6992911337702067E-005	1	-2,36234737E-005	338,910034	4,4020112E-008
2	1	0	1	0	19,0179	-0,491016567	-0,491651446	8,8243387211692723E-005	1	-2,36171745E-005	338,910034	4,33849898E-008
2	1	0	1	0	19,0899	-0,476616591	-0,477220535	8,9501401961562022E-005	1	-2,36107553E-005	338,910034	4,27119069E-008
2	1	0	1	0	19,1619	-0,462216586	-0,462817252	9,2139714333845363E-005	1	-2,36041906E-005	338,910034	4,26438511E-008
2	1	0	1	0	19,2339	-0,447816581	-0,448399395	9,4646531894831872E-005	1	-2,35974512E-005	338,910034	4,24394493E-008
2	1	0	1	0	19,3059	-0,433416575	-0,434046417	9,771452067054665E-005	1	-2,35905136E-005	338,910034	4,2412637E-008
2	1	0	1	0	19,3779	-0,41901657	-0,419656754	0,00010133445273976507	1	-2,35833559E-005	338,910034	4,25256879E-008
2	1	0	1	0	19,4499	-0,404616565	-0,405253381	0,00010367459574573506	1	-2,35759726E-005	338,910034	4,20144808E-008
2	1	0	1	0	19,5219	-0,390216529	-0,39083007	0,00010722165955569067	1	-2,35683674E-005	338,910034	4,1905448E-008
2	1	0	1	0	19,5939	-0,375816524	-0,376477063	0,00010974020249788878	1	-2,35605567E-005	338,910034	4,13146708E-008
2	1	0	1	0	19,6659	-0,361416519	-0,362040639	0,00011226962818442995	1	-2,35525495E-005	338,910034	4,06461673E-008
2	1	0	1	0	19,7379	-0,347016513	-0,347645909	0,00011521365702025707	1	-2,35443586E-005	338,910034	4,00535569E-008
2	1	0	1	0	19,8099	-0,332616508	-0,333219498	0,00011748009594233144	1	-2,3535993E-005	338,910034	3,91466592E-008
2	1	0	1	0	19,8819	-0,318216503	-0,318824738	0,0001202540925636683	1	-2,35274383E-005	338,910034	3,83399801E-008
2	1	0	1	0	19,9539	-0,303816497	-0,304432034	0,00012285974299518091	1	-2,35186817E-005	338,910034	3,74024403E-008
2	1	0	1	0	20,0259	-0,289416492	-0,290053427	0,00012580459890474803	1	-2,35097032E-005	338,910034	3,64900536E-008
2	1	0	1	0	20,0979	-0,275016487	-0,275640547	0,00013047650579186437	1	-2,35004773E-005	338,910034	3,59646144E-008
2	1	0	1	0	20,1699	-0,260616511	-0,26125443	0,0001337798419491147	1	-2,34909803E-005	338,910034	3,49505775E-008
2	1	0	1	0	20,2419	-0,246216476	-0,246834576	0,00013903720863501818	1	-2,34811705E-005	338,910034	3,43191893E-008
2	1	0	1	0	20,3139	-0,231816486	-0,232476532	0,00014327777894382827	1	-2,34710296E-005	338,910034	3,33087229E-008
2	1	0	1	0	20,3859	-0,217416465	-0,218016237	0,00014754347108093683	1	-2,34605268E-005	338,910034	3,21668736E-008
2	1	0	1	0	20,4579	-0,20301646	-0,20363465	0,00015587215674964992	1	-2,34496001E-005	338,910034	3,17409707E-008
2	1	0	1	0	20,5299	-0,188616455	-0,189273596	0,00016082967829732925	1	-2,34382387E-005	338,910034	3,04408125E-008
2	1	0	1	0	20,6019	-0,174216449	-0,174863279	0,00016841798016361837	1	-2,34264007E-005	338,910034	2,94501206E-008
2	1	0	1	0	20,6739	-0,159816444	-0,160470054	0,00017562685419354912	1	-2,34140462E-005	338,910034	2,81828498E-008
2	1	0	1	0	20,7459	-0,145416439	-0,146088421	0,00018254761314757213	1	-2,34011568E-005	338,910034	2,66680935E-008
2	1	0	1	0	20,8179	-0,131016433	-0,131678104	0,00019052704771794269	1	-2,33877308E-005	338,910034	2,50882408E-008
2	1	0	1	0	20,8899	-0,116616428	-0,117269307	0,00019672582526920867	1	-2,33737828E-005	338,910034	2,30699015E-008
2	1	0	1	0	20,9619	-0,102216423	-0,102859497	0,00020441713469640522	1	-2,335934E-005	338,910034	2,10262439E-008
2	1	0	1	0	21,0339	-0,0878164098	-0,0884728059	0,00020972391223096026	1	-2,33444334E-005	338,910034	1,85548625E-008
2	1	0	1	0	21,1059	-0,0734164119	-0,0740926564	0,00021544779998980218	1	-2,33291103E-005	338,910034	1,59630993E-008
2	1	0	1	0	21,1779	-0,0590164028	-0,0596752763	0,00022147738721351155	1	-2,33134015E-005	338,910034	1,32167246E-008
2	1	0	1	0	21,2499	-0,0446163863	-0,0452624299	0,00022566855305309533	1	-2,32973507E-005	338,910034	1,02143067E-008
2	1	0	1	0	21,3219	-0,0302163847	-0,0308868121	0,0002314493914713911	1	-2,32809616E-005	338,910034	7,14873405E-009
2	1	0	1	0	21,3939	-0,0158163812	-0,0164689627	0,00023590688386863555	1	-2,32642305E-005	338,910034	3,88514154E-009
2	1	0	1	0	21,4659	-0,00141637411	-0,00197772519	0,00024122623068578534	1	-2,32471157E-005	338,910034	4,77079209E-010
2	1	0	1	0	21,5379	0,012983623	0,0124652451	0,00024629008868758595	1	-2,32296297E-005	338,910034	3,07006642E-009
2	1	0	1	0	21,6099	0,0273836125	0,0268071778	0,0002506546243418945	1	-2,32117964E-005	338,910034	6,7193433E-009
2	1	0	1	0	21,6819	0,0417836122	0,0411948562	0,00025555685733068746	1	-2,31936156E-005	338,910034	1,05276277E-008
2	1	0	1	0	21,7539	0,0561836064	0,0556272678	0,00025988370372400422	1	-2,31751237E-005	338,910034	1,44566208E-008
2	1	0	1	0	21,8259	0,0705836117	0,0700461194	0,00026372307125679949	1	-2,31563517E-005	338,910034	1,84727771E-008
2	1	0	1	0	21,8979	0,0849836096	0,0843965933	0,00026732625540342195	1	-2,31373288E-005	338,910034	2,25614247E-008
2	1	0	1	0	21,9699	0,0993835926	0,0988868177	0,00026933136351752365	1	-2,31180911E-005	338,910034	2,66333213E-008
2	1	0	1	0	22,0419	0,113783576	0,11323075	0,00027227037906996317	1	-2,30986716E-005	338,910034	3,08293799E-008
2	1	0	1	0	22,1139	0,128183573	0,127669692	0,00027400663012892909	1	-2,30790938E-005	338,910034	3,49823424E-008
2	1	0	1	0	22,1859	0,142583549	0,142028704	0,00027467752471964867	1	-2,30593996E-005	338,910034	3,90120931E-008
2	1	0	1	0	22,2579	0,156983554	0,156429961	0,00027677897025226205	1	-2,30396054E-005	338,910034	4,32965237E-008
2	1	0	1	0	22,3299	0,171383545	0,170783967	0,00027734346066840208	1	-2,30197329E-005	338,910034	4,73658162E-008
2	1	0	1	0	22,4019	0,18578352	0,18523699	0,00027845325905274422	1	-2,29998004E-005	338,910034	5,15798426E-008
2	1	0	1	0	22,4739	0,200183555	0,199566841	0,00027897086185372243	1	-2,29798079E-005	338,910034	5,56733326E-008
2	1	0	1	0	22,5459	0,214583516	0,214028433	0,00028011830478023683	1	-2,29597608E-005	338,910034	5,99532797E-008
2	1	0	1	0	22,6179	0,228983521	0,228382915	0,00028147516078254352	1	-2,29396519E-005	338,910034	6,42841158E-008
2	1	0	1	0	22,6899	0,243383527	0,242870629	0,0002820195608775767	1	-2,29194702E-005	338,910034	6,84942663E-008
2	1	0	1	0	22,7619	0,257783532	0,257163823	0,00028343671100541184	1	-2,28991921E-005	338,910034	7,28896694E-008
2	1	0	1	0	22,8339	0,272183508	0,27163139	0,00028561856428647613	1	-2,28787703E-005	338,910034	7,75829676E-008
2	1	0	1	0	22,9059	0,286583543	0,286031187	0,00028920249152027686	1	-2,2858143E-005	338,910034	8,27209305E-008
2	1	0	1	0	22,9779	0,300983518	0,300413787	0,00029476808002496058	1	-2,28372264E-005	338,910034	8,85523974E-008
2	1	0	1	0	23,0499	0,315383524	0,314810991	0,00030091491651131802	1	-2,28159042E-005	338,910034	9,47313197E-008
2	1	0	1	0	23,1219	0,329783529	0,329247236	0,00031062056349415776	1	-2,2794E-005	338,910034	1,0227096E-007
2	1	0	1	0	23,1939	0,344183505	0,343598008	0,00032321663188907546	1	-2,27712917E-005	338,910034	1,11056593E-007
2	1	0	1	0	23,2659	0,35858348	0,358006805	0,00033987068433074739	1	-2,27474957E-005	338,910034	1,21676024E-007
2	1	0	1	0	23,3379	0,372983485	0,372406006	0,00036260288937571027	1	-2,27223009E-005	338,910034	1,35035492E-007
2	1	0	1	0	23,4099	0,387383431	0,386826396	0,00038593900144366099	1	-2,26954617E-005	338,910034	1,49291395E-007
2	1	0	1	0	23,4819	0,401783437	0,401178896	0,00040812511496481248	1	-2,26669436E-005	338,910034	1,63731187E-007
2	1	0	1	0	23,5539	0,416183442	0,415626377	0,00042257970889885997	1	-2,26370848E-005	338,910034	1,75635279E-007
2	1	0	1	0	23,6259	0,430583447	0,430012584	0,00042609330172413766	1	-2,26065513E-005	338,910034	1,83225481E-007
2	1	0	1	0	23,6979	0,444983423	0,444433481	0,00042359066223422118	1	-2,25760286E-005	338,910034	1,88257872E-007
2	1	0	1	0	23,7699	0,459383428	0,458806485	0,00041386406116958925	1	-2,25459917E-005	338,910034	1,89883522E-007
2	1	0	1	0	23,8419	0,473783433	0,473224849	0,00040497169628420442	1	-2,2516615E-005	338,910034	1,9164267E-007
2	1	0	1	0	23,9139	0,488183439	0,487603933	0,00039518314668129939	1	-2,24879186E-005	338,910034	1,92692852E-007
2	1	0	1	0	23,9838	0,502160311	0,501567662	0,00038620154499114086	1	-2,24606501E-005	338,909943	1,937062E-007
2	1	0	0	0	24,0439	0,51417762	0,51358974	0,0003794265898216329	1	-2,24376399E-005	338,909943	1,948696E-007
2	1	0	1	0	24,1038	0,526168644	0,525615931	0,00037343215874585754	1	-2,24150517E-005	338,909943	1,96281889E-007
2	1	0	1	0	24,1633	0,538065493	0,537461758	0,00036771618320404493	1	-2,2392951E-005	338,909912	1,97633383E-007
2	1	0	1	0	24,2233	0,55005604	0,549470901	0,00036293566199432653	1	-2,2370954E-005	338,909943	1,99422587E-007
2	1	0	1	0	24,2833	0,562054455	0,561506093	0,00036111812405724422	1	-2,23491897E-005	338,909912	2,02770025E-007
2	1	0	1	0	24,3433	0,574062288	0,57342273	0,00035838197813151219	1	-2,23276147E-005	338,909912	2,05504378E-007
2	1	0	1	0	24,4033	0,586057425	0,585426629	0,00035805186374628358	1	-2,23061743E-005	338,909912	2,09613091E-007
2	1	0	1	0	24,4633	0,59806335	0,59747082	0,00035831392274739309	1	-2,22847211E-005	338,909912	2,14082107E-007
2	1	0	1	0	24,5233	0,610055923	0,609474421	0,00036056586044134074	1	-2,22631388E-005	338,909943	2,19755663E-007
2	1	0	1	0	24,5833	0,622055352	0,621461153	0,00037149887790423027	1	-2,22411691E-005	338,909912	2,30872118E-007
2	1	0	0	0	24,6432	0,634033442	0,633417904	0,00038588393537964045	1	-2,22185172E-005	338,909912	2,44425792E-007
2	1	0	0	0	24,7031	0,646017194	0,645453691	0,00040910381608590918	1	-2,21946993E-005	338,909912	2,64057576E-007
2	1	0	1	0	24,7631	0,65801537	0,657429576	0,00044156744450317203	1	-2,21691298E-005	338,909943	2,90299511E-007
2	1	0	0	0	24,8232	0,670033395	0,669437587	0,00048354094187411968	1	-2,21412483E-005	338,909943	3,23700476E-007
2	1	0	1	0	24,8819	0,68177855	0,681171656	0,00053213553541336122	1	-2,21113805E-005	338,909943	3,62475646E-007
2	1	0	0	0	24,9418	0,693758249	0,693191886	0,00057902741857264461	1	-2,20781076E-005	338,909882	4,01377122E-007
2	1	0	1	0	25,0019	0,705773413	0,705187857	0,00061337887554869722	1	-2,20422353E-005	338,909943	4,32547324E-007
2	1	0	1	0	25,0609	0,717575431	0,716981053	0,00063506696365232986	1	-2,20052862E-005	338,909912	4,55330991E-007
2	1	0	0	0	25,1208	0,729553521	0,728959441	0,00064289081648875699	1	-2,19669E-005	338,909943	4,68641332E-007
2	1	0	0	0	25,1807	0,741533458	0,740941823	0,000639193684593648	1	-2,19284284E-005	338,909912	4,73605326E-007
2	1	0	0	0	25,2407	0,75353384	0,752979457	0,00062831924008683277	1	-2,18903569E-005	338,909912	4,7311147E-007
2	1	0	0	0	25,3007	0,765534043	0,764982104	0,00061539058599029658	1	-2,18530149E-005	338,909912	4,70762785E-007
2	1	0	0	0	25,3607	0,777534366	0,776919603	0,00060296577495388877	1	-2,18164605E-005	338,909912	4,68455937E-007
2	1	0	0	0	25,4200	0,789393544	0,788787842	0,00059172219721877862	1	-2,17810866E-005	338,909943	4,66743273E-007
2	1	0	0	0	25,4800	0,801393867	0,800787807	0,00058152218057709274	1	-2,17459001E-005	338,909943	4,65675868E-007
2	1	0	0	0	25,5400	0,813394129	0,812795401	0,00057464785858722534	1	-2,17111974E-005	338,909943	4,67071146E-007
2	1	0	0	0	25,6000	0,825394452	0,824869335	0,00057017181788173754	1	-2,16768021E-005	338,909943	4,70317246E-007
2	1	0	0	0	25,6600	0,837394714	0,836887538	0,00056730732340545126	1	-2,16426597E-005	338,909943	4,74772435E-007
2	1	0	0	0	25,7200	0,849395037	0,848917007	0,00056681404147933005	1	-2,1608621E-005	338,909943	4,81178063E-007
2	1	0	0	0	25,7800	0,861395299	0,860899389	0,00056796772593278086	1	-2,15745586E-005	338,909943	4,88963053E-007
2	1	0	0	0	25,8400	0,873395562	0,872914791	0,00057082826342498995	1	-2,15403688E-005	338,909943	4,98284408E-007
2	1	0	0	0	25,9000	0,885395765	0,88495487	0,00057527241740729357	1	-2,15059481E-005	338,909943	5,09090114E-007
2	1	0	0	0	25,9600	0,897396147	0,896916151	0,00058168995572553498	1	-2,14711963E-005	338,909943	5,21727088E-007
2	1	0	0	0	26,0200	0,90939647	0,908891678	0,0005901059615780512	1	-2,14360098E-005	338,909943	5,36342384E-007
2	1	0	0	0	26,0800	0,921396732	0,920863926	0,00060009077099702643	1	-2,14002921E-005	338,909943	5,52601932E-007
2	1	0	0	0	26,1400	0,933396995	0,932889938	0,00061139971430653658	1	-2,13639414E-005	338,909943	5,70368627E-007
2	1	0	0	0	26,2000	0,945397317	0,944873154	0,0006244542083872311	1	-2,13268668E-005	338,909943	5,90030027E-007
2	1	0	1	0	26,2597	0,957333505	0,956879854	0,00063886151780663885	1	-2,12891227E-005	338,909912	6,11313737E-007
2	1	0	1	0	26,3197	0,969333708	0,968837321	0,00065581632928966682	1	-2,12502873E-005	338,909912	6,35379308E-007
2	1	0	1	0	26,3797	0,981333911	0,980835438	0,00067390843281479706	1	-2,12104333E-005	338,909912	6,60993294E-007
2	1	0	1	0	26,4397	0,993334293	0,992832482	0,00069189831989941402	1	-2,11694569E-005	338,909912	6,86939131E-007
2	0	0	0	1	26,4799	0,998723507	0,998174131	0,00055236212116190246	1	-2,11423012E-005	338,910034	5,51353594E-007
2	0	0	0	1	26,5519	0,984323382	0,983785927	0,00044835897951120589	1	-2,11066181E-005	338,910034	4,41089242E-007
2	0	0	0	1	26,6239	0,969923437	0,969371915	0,00038885704963289267	1	-2,10764338E-005	338,910034	3,76947099E-007
2	0	0	0	1	26,6959	0,955523491	0,954989195	0,00034312711460914522	1	-2,10500493E-005	338,910034	3,27682699E-007
2	0	0	0	1	26,7679	0,941123366	0,94054395	0,00030319728114136698	1	-2,10266389E-005	338,910034	2,85170358E-007
2	0	0	0	1	26,8399	0,92672348	0,926174402	0,00027291278428564525	1	-2,10056805E-005	338,910034	2,52764835E-007
2	0	0	0	1	26,9119	0,912323415	0,911748052	0,00024583865111955667	1	-2,09867831E-005	338,910034	2,24142909E-007
2	0	0	0	1	26,9839	0,89792347	0,897358596	0,00022414921754756454	1	-2,09696482E-005	338,910034	2,01142228E-007
2	0	0	0	1	27,0559	0,883523405	0,882976711	0,00020450844017492109	1	-2,09540431E-005	338,910034	1,80576194E-007
2	0	0	0	1	27,1279	0,86912334	0,868541777	0,00018547321308472653	1	-2,09397767E-005	338,910034	1,61091236E-007
2	0	0	0	1	27,1999	0,854723454	0,854137897	0,0001707363448347904	1	-2,09267164E-005	338,910034	1,45832388E-007
2	0	0	0	1	27,2719	0,840323448	0,839765668	0,0001563035081202104	1	-2,09147292E-005	338,910034	1,31258318E-007
2	0	0	0	1	27,3439	0,825923443	0,825311184	0,00014307257051988323	1	-2,09037535E-005	338,910034	1,18079392E-007
2	0	0	0	1	27,4159	0,811523497	0,810875833	0,0001295099543747783	1	-2,08937763E-005	338,910034	1,0501649E-007
2	0	0	0	1	27,4879	0,797123551	0,796428859	0,00011331741800883061	1	-2,08847996E-005	338,910034	9,02492587E-008
2	0	0	0	1	27,5599	0,782723486	0,782093525	9,8825954503873165E-005	1	-2,0876967E-005	338,910034	7,72911406E-008
2	0	0	0	1	27,6319	0,768323541	0,767666459	7,587346587705824E-005	1	-2,08705351E-005	338,910034	5,82455151E-008
2	0	0	0	1	27,7039	0,753923476	0,753273606	4,4818419708217254E-005	1	-2,0865984E-005	338,910034	3,37605321E-008
2	0	0	0	1	27,7759	0,73952353	0,738859236	5,8233042324592819E-006	1	-2,08639594E-005	338,910034	4,30260227E-009
2	0	0	0	1	27,8479	0,725123465	0,72450918	-5,0353521148955315E-005	1	-2,08653E-005	338,910034	3,64815875E-008
2	0	0	0	1	27,9199	0,710723579	0,710058093	-0,00010851201260283898	1	-2,08707497E-005	338,910034	7,70498332E-008
2	0	0	0	1	27,9919	0,696323514	0,695669889	-0,00016634803810539274	1	-2,08804831E-005	338,910034	1,15723324E-007
2	0	0	0	1	28,0639	0,681923568	0,68123877	-0,0002062343196335423	1	-2,08938618E-005	338,910034	1,40494819E-007
2	0	0	0	1	28,1359	0,667523623	0,66688633	-0,00022760214595133299	1	-2,09095233E-005	338,910034	1,51784761E-007
2	0	0	0	1	28,2079	0,653123558	0,652524769	-0,00023273136924161539	1	-2,09260506E-005	338,910034	1,51862977E-007
2	0	0	0	1	28,2799	0,638723612	0,638117492	-0,00022427787457433475	1	-2,09424088E-005	338,910034	1,43115628E-007
2	0	0	0	1	28,3519	0,624323547	0,623681128	-0,00021462834735773427	1	-2,09580976E-005	338,910034	1,33859643E-007
2	0	0	0	1	28,4239	0,609923542	0,609296679	-0,00020382549754777763	1	-2,09730188E-005	338,910034	1,24190194E-007
2	0	0	0	1	28,4959	0,595523596	0,5948475	-0,00019657139364725366	1	-2,09872687E-005	338,910034	1,16930003E-007
2	0	0	0	1	28,5679	0,58112359	0,580502152	-0,0001927144285597624	1	-2,10010476E-005	338,910034	1,11871138E-007
2	0	0	0	1	28,6399	0,566723585	0,566032112	-0,00018823849969669251	1	-2,10145663E-005	338,910034	1,06549038E-007
2	0	0	0	1	28,7119	0,55232358	0,551652074	-0,00018970423323045811	1	-2,10279577E-005	338,910034	1,04650731E-007
2	0	0	0	1	28,7839	0,537923634	0,537239552	-0,00019037177031278614	1	-2,10414164E-005	338,910034	1,02275244E-007
2	0	0	0	1	28,8559	0,523523569	0,522907734	-0,00019335264736634515	1	-2,10550443E-005	338,910034	1,01105591E-007
2	0	0	0	1	28,9279	0,509123623	0,508482933	-0,00019792153935477024	1	-2,10689595E-005	338,910034	1,00639724E-007
2	0	0	0	1	28,9999	0,494723648	0,494095296	-0,00020169224184260915	1	-2,10831804E-005	338,910034	9,9655189E-008
2	0	0	0	1	29,0719	0,480323613	0,47968021	-0,00020659782647594778	1	-2,10977523E-005	338,910034	9,91008875E-008
2	0	0	0	1	29,1439	0,465923637	0,465289086	-0,00021240629562450931	1	-2,1112648E-005	338,910034	9,88303341E-008
2	0	0	0	1	29,2159	0,451523691	0,450915635	-0,00021418862467582726	1	-2,11278839E-005	338,910034	9,65809974E-008
2	0	0	0	1	29,2879	0,437123686	0,436491877	-0,00022007247830595386	1	-2,11433544E-005	338,910034	9,60598499E-008
2	0	0	0	1	29,3599	0,422723621	0,422078699	-0,00021985806262236656	1	-2,11590304E-005	338,910034	9,27974071E-008
2	0	0	0	1	29,4319	0,408323616	0,407723218	-0,00022101725104667955	1	-2,11747811E-005	338,910034	9,01138648E-008
2	0	0	0	1	29,5039	0,39392367	0,393293738	-0,00021958084185395248	1	-2,11905026E-005	338,910034	8,63597691E-008
2	0	0	0	1	29,5759	0,379523695	0,378868759	-0,00021544663688768755	1	-2,12060568E-005	338,910034	8,16259984E-008
2	0	0	0	1	29,6479	0,365123659	0,364442199	-0,00021327234008351824	1	-2,12213235E-005	338,910034	7,77254385E-008
2	0	0	0	1	29,7199	0,350723684	0,350086719	-0,00020714558425089824	1	-2,1236232E-005	338,910034	7,25189153E-008
2	0	0	0	1	29,7919	0,336323678	0,335684478	-0,00020107410484159318	1	-2,12507093E-005	338,910034	6,7497453E-008
2	0	0	0	1	29,8639	0,321923703	0,321290225	-0,00019442137305571802	1	-2,12647265E-005	338,910034	6,24656877E-008
2	0	0	0	1	29,9359	0,307523698	0,306875408	-0,00018812459922046093	1	-2,12782852E-005	338,910034	5,77308121E-008
2	0	0	0	1	30,0079	0,293123722	0,292483211	-0,00018292585996816352	1	-2,12914147E-005	338,910034	5,35027418E-008
2	0	0	0	1	30,0799	0,278723717	0,27807194	-0,00017639206329110026	1	-2,1304144E-005	338,910034	4,90496816E-008
2	0	0	0	1	30,1519	0,264323741	0,263660103	-0,00017300413014110886	1	-2,13165204E-005	338,910034	4,56142857E-008
2	0	0	0	1	30,2239	0,249923736	0,249232233	-0,00016860191399266019	1	-2,13285948E-005	338,910034	4,2021032E-008
2	0	0	0	1	30,2959	0,23552376	0,234884024	-0,00016538400440997952	1	-2,13404073E-005	338,910034	3,88460606E-008
2	0	0	0	1	30,3679	0,221123755	0,220441595	-0,00016312427875451053	1	-2,13520161E-005	338,910034	3,59593777E-008
2	0	0	0	1	30,4399	0,20672375	0,206087872	-0,0001602656827161121	1	-2,13634539E-005	338,910034	3,30288152E-008
2	0	0	0	1	30,5119	0,192323744	0,191667989	-0,00015954119202445408	1	-2,13747699E-005	338,910034	3,05789385E-008
2	0	0	0	1	30,5839	0,177923754	0,177334145	-0,00015797830115372957	1	-2,13860003E-005	338,910034	2,80149468E-008
2	0	0	0	1	30,6559	0,163523763	0,16285044	-0,00015710892119370723	1	-2,1397178E-005	338,910034	2,55852566E-008
2	0	0	0	1	30,7279	0,149123773	0,148477867	-0,00015800008187146576	1	-2,14083229E-005	338,910034	2,34595152E-008
2	0	0	0	1	30,7999	0,134723768	0,134062037	-0,00015697491442735286	1	-2,1419457E-005	338,910034	2,10443769E-008
2	0	0	0	1	30,8719	0,120323762	0,119718581	-0,00015759219432335453	1	-2,14305801E-005	338,910034	1,88667144E-008
2	0	0	0	1	30,9439	0,105923772	0,105302252	-0,0001568325253260167	1	-2,14417087E-005	338,910034	1,6514818E-008
2	0	0	0	1	31,0159	0,0915237814	0,0909010023	-0,00015680404425410621	1	-2,14528282E-005	338,910034	1,42536445E-008
2	0	0	0	1	31,0879	0,077123791	0,0764696002	-0,00015768851042757642	1	-2,14639458E-005	338,910034	1,20583774E-008
2	0	0	0	1	31,1599	0,0627237931	0,0621306822	-0,00015685598195827104	1	-2,14750526E-005	338,910034	9,7455688E-009
2	0	0	0	1	31,2319	0,0483238026	0,0476726294	-0,00015709552088824874	1	-2,14861666E-005	338,910034	7,48915685E-009
2	0	0	0	1	31,3039	0,0339238085	0,0332658552	-0,00015671945660662358	1	-2,14972788E-005	338,910034	5,2134066E-009
2	0	0	0	1	31,3759	0,0195238162	0,0188806932	-0,00015654356410789741	1	-2,15084092E-005	338,910034	2,95565106E-009
2	0	0	0	1	31,4479	0,00512382202	0,00448950008	-0,00015826893262396464	1	-2,15195705E-005	338,910034	7,10548398E-010
2	0	0	0	1	31,4734	2,382409E-005	-0,000706749212	-0,00018310257291886957	1	-2,15235468E-005	338,910065	1,29407596E-010