File: Example_CV/Co_12_100mV_01_CV_02_CV_02_CV_C01.txt
EC-Lab ASCII FILE
Nb header lines : 53

Cyclic Voltammetry

Run on channel : 1 (SN 24330)
User :
CE vs. WE compliance from -10 V to 10 V
Electrode connection : standard
Ewe ctrl range : min = -2,50 V, max = 2,50 V
Safety Limits :
	Do not start on E overload
Acquisition started on : 10/05/2017 17:27:55
Saved on :
	File : Co_12_100mV_01_CV_02_CV_02_CV_C01.mpr
	Directory : C:\Users\usuario\Documents\EC-Lab\Data\Federico\R=H\CO2 reduction\CV_scan rates CO2_0,4 mM_GC 1mm_5-10-2017\
	Host : 192.168.1.115
Device : VSP (SN 1463)
Address : USB
EC-Lab for windows v11.10 (software)
Internet server v11.10 (firmware)
Command interpretor v11.10 (firmware)
Electrode material :
Initial state :
Electrolyte :
Comments :
Electrode surface area : 0,001 cm²
Characteristic mass : 0,001 g
Equivalent Weight : 0,000 g/eq.
Density : 0,000 g/cm3
Ei (V)              0,100
vs.                 Ref
dE/dt               100,000
dE/dt unit          mV/s
E1 (V)              -1,870
vs.                 Ref
Step percent        50
N                   20
E range min (V)     -2,500
E range max (V)     2,500
I Range             Auto
I Range min         Unset
I Range max         Unset
I Range init        Unset
Bandwidth           5
E2 (V)              1,000
vs.                 Ref
nc cycles           0
Reverse Scan        1
Ef (V)              0,000
vs.                 Ref

mode	ox/red	error	control changes	counter inc.	time/s	control/V	Ewe/V	<I>/mA	cycle number	(Q-Qo)/C	Rcmp/Ohm	Capacitance charge/µF	Capacitance discharge/µF	P/W
2	0	0	0	0	2,2736	0,099999994	0,100366689	-0,00023845018586143853	1	0	415,670532	0	0	2,3932456E-008
2	0	0	1	0	2,4441	0,0829499215	0,0823729858	-8,0902424419131021E-006	1	-5,90356963E-009	415,67038	0	0,070267786628705587	6,66417421E-010
2	0	0	1	0	2,6241	0,064949967	0,0644032732	-1,1387715170560323E-005	1	-1,29889521E-008	415,67038	0	0,085652037118513037	7,33406114E-010
2	0	0	1	0	2,8041	0,0469499603	0,0463701934	-1,4099734780427856E-005	1	-2,07853166E-008	415,67038	0	0,10324576813908288	6,53807453E-010
2	0	0	1	0	2,9841	0,0289499685	0,0283497032	-1,9589939331715843E-005	1	-2,92674844E-008	415,67038	0	0,12108461857363128	5,55368973E-010
2	0	0	1	0	3,1641	0,0109499795	0,010341269	-2,2690586572898963E-005	1	-3,84249752E-008	415,67038	0	0,13799465634740658	2,34649467E-010
2	0	0	1	0	3,3441	-0,00705001736	-0,00772196101	-2,481296305003705E-005	1	-4,82918061E-008	415,67038	0	0,15536729095579258	1,91604732E-010
2	0	0	1	0	3,5241	-0,0250500198	-0,0257319175	-2,9350024810152122E-005	1	-5,88781752E-008	415,67038	0	0,17434259111555178	7,55232432E-010
2	0	0	1	0	3,7041	-0,0430500358	-0,0437187478	-3,4148407229694208E-005	1	-7,01949716E-008	415,67038	0	0,19285629552738698	1,49292556E-009
2	0	0	1	0	3,8841	-0,06105005	-0,0617367476	-3,7981080581809888E-005	1	-8,22395094E-008	415,67038	0	0,21221169615149024	2,34482833E-009
2	0	0	1	0	4,0641	-0,0790500492	-0,0797261	-4,2128679232770125E-005	1	-9,49922025E-008	415,67038	0	0,23220015989019101	3,35875527E-009
2	0	0	1	0	4,2441	-0,0970500633	-0,0977440849	-4,7665783527188186E-005	1	-1,08410532E-007	415,67038	0	0,25123780147296253	4,65904826E-009
2	0	0	1	0	4,4241	-0,115050025	-0,115691729	-4,9449787423470822E-005	1	-1,22430052E-007	415,67038	0	0,27039769406542947	5,72093128E-009
2	0	0	1	0	4,6041	-0,133050054	-0,133711219	-5,2337692288143437E-005	1	-1,36980006E-007	415,67038	0	0,28943093836218234	6,99813674E-009
2	0	0	1	0	4,7841	-0,151050061	-0,151739255	-5,5974376915688198E-005	1	-1,52009932E-007	415,67038	0	0,30700379688330829	8,4935099E-009
2	0	0	1	0	4,9641	-0,169050083	-0,16972509	-5,5538846245445946E-005	1	-1,67457415E-007	415,67038	0	0,32396389997107379	9,42633527E-009
2	0	0	1	0	5,1441	-0,187050104	-0,187726513	-5,917469556942167E-005	1	-1,83272405E-007	415,67038	0	0,3406757795183888	1,11086589E-008
2	0	0	1	0	5,3241	-0,205050051	-0,20572643	-6,0504740064826982E-005	1	-1,99411517E-007	415,67038	0	0,3556816746917655	1,24474244E-008
2	0	0	1	0	5,5041	-0,223050058	-0,223694682	-6,123090596594464E-005	1	-2,15854811E-007	415,67038	0	0,37001941572000614	1,36970284E-008
2	0	0	1	0	5,6841	-0,241050065	-0,241671413	-6,3934552761230784E-005	1	-2,32618589E-007	415,67038	0	0,38421304535186093	1,54511532E-008
2	0	0	1	0	5,8641	-0,259050131	-0,25968793	-6,7827533416076941E-005	1	-2,49753157E-007	415,67038	0	0,39769256117144544	1,7613992E-008
2	0	0	1	0	6,0441	-0,277050138	-0,277738094	-6,8145804259768525E-005	1	-2,6729515E-007	415,67038	0	0,41078632067849382	1,8926686E-008
2	0	0	1	0	6,2241	-0,295050085	-0,295699298	-7,0840234609715955E-005	1	-2,85302519E-007	415,67038	0	0,42435165781073184	2,09474074E-008
2	0	0	1	0	6,4041	-0,313050121	-0,313699156	-7,5547322661637504E-005	1	-3,03800277E-007	415,67038	0	0,4376740253418025	2,36991315E-008
2	0	0	1	0	6,5841	-0,331050158	-0,33168909	-7,6132772888788365E-005	1	-3,2272203E-007	415,67038	0	0,45109183396251366	2,52524099E-008
2	0	0	1	0	6,7641	-0,349050134	-0,34968695	-7,8572583845470515E-005	1	-3,41940506E-007	415,67038	0	0,46417081564389261	2,74758065E-008
2	0	0	1	0	6,9441	-0,367050171	-0,367721021	-7,8181445524861043E-005	1	-3,61309617E-007	415,67038	0	0,47619161763423187	2,87489605E-008
2	0	0	1	0	7,1241	-0,385050118	-0,385725409	-7,7475384162688666E-005	1	-3,80752027E-007	415,67038	0	0,48783605400412422	2,98842231E-008
2	0	0	1	0	7,3041	-0,403050125	-0,403730363	-8,0292935891927309E-005	1	-4,00271915E-007	415,67038	0	0,49866101669367245	3,24166969E-008
2	0	0	1	0	7,4841	-0,421050131	-0,421706676	-7,998889628580384E-005	1	-4,19931155E-007	415,67038	0	0,50883667156225363	3,37318511E-008
2	0	0	1	0	7,6641	-0,439050198	-0,439717054	-8,0188241216354586E-005	1	-4,39806115E-007	415,67038	0	0,51897589885160653	3,52601361E-008
2	0	0	1	0	7,8441	-0,457050204	-0,457699865	-8,2763732064593216E-005	1	-4,59921068E-007	415,67038	0	0,52885804578581888	3,78809482E-008
2	0	0	1	0	8,0241	-0,475050181	-0,475727975	-8,5543593576474765E-005	1	-4,80262315E-007	415,67038	0	0,53841613078994368	4,0695479E-008
2	0	0	1	0	8,2041	-0,493050128	-0,493737459	-8,5650806777505638E-005	1	-5,00818828E-007	415,67038	0	0,54804185767351245	4,22890132E-008
2	0	0	1	0	8,3841	-0,511050224	-0,511706173	-8,7866987541929011E-005	1	-5,21550078E-007	415,67038	0	0,55731417243946432	4,49620785E-008
2	0	0	1	0	8,5641	-0,529050291	-0,529656351	-8,7129098161360474E-005	1	-5,42433611E-007	415,67038	0	0,56633271017788653	4,61484788E-008
2	0	0	1	0	8,7441	-0,547050238	-0,547673762	-8,8596498827834534E-005	1	-5,63446861E-007	415,67038	0	0,57509132768916979	4,85219793E-008
2	0	0	1	0	8,9241	-0,565050244	-0,565628052	-8,9885509079354893E-005	1	-5,84571069E-007	415,67038	0	0,5835184459658944	5,08417664E-008
2	0	0	1	0	9,1041	-0,583050251	-0,583657503	-8,7588915550297408E-005	1	-6,05793389E-007	415,67038	0	0,59155080497833037	5,11219262E-008
2	0	0	1	0	9,2841	-0,601050258	-0,601682603	-9,077750723020576E-005	1	-6,27112115E-007	415,67038	0	0,59933488679020736	5,4619246E-008
2	0	0	1	0	9,4641	-0,619050264	-0,619718671	-9,0932454051988442E-005	1	-6,4853873E-007	415,67038	0	0,6067413778898089	5,63525404E-008
2	0	0	1	0	9,6441	-0,637050211	-0,637682915	-9,0586543541647808E-005	1	-6,70070847E-007	415,67038	0	0,61416002334821069	5,77654902E-008
2	0	0	1	0	9,8241	-0,655050278	-0,655620456	-9,224407219670327E-005	1	-6,91732907E-007	415,67038	0	0,62138445332378163	6,04770989E-008
2	0	0	1	0	10,0041	-0,673050284	-0,673700809	-9,362185740632064E-005	1	-7,13538839E-007	415,67038	0	0,62834200996295027	6,30731236E-008
2	0	0	1	0	10,1841	-0,691050291	-0,691706657	-9,3141942057316058E-005	1	-7,35512685E-007	415,67038	0	0,63539367007331226	6,44268994E-008
2	0	0	1	0	10,3641	-0,709050238	-0,709737778	-9,6535732163709235E-005	1	-7,57674684E-007	415,67038	0	0,64243181715665075	6,85150567E-008
2	0	0	1	0	10,5441	-0,727050245	-0,727702975	-9,6876619002279309E-005	1	-7,80045184E-007	415,67038	0	0,64933047351367859	7,0497407E-008
2	0	0	1	0	10,7241	-0,745050311	-0,745659232	-9,7348160932740582E-005	1	-8,02621628E-007	415,67038	0	0,65633808764922867	7,25885556E-008
2	0	0	1	0	10,9041	-0,763050258	-0,763686657	-9,8562627041892762E-005	1	-8,25406005E-007	415,67038	0	0,66310405667526054	7,5270961E-008
2	0	0	1	0	11,0841	-0,781050265	-0,781650424	-9,9837388150166605E-005	1	-8,48418381E-007	415,67038	0	0,66984936695539981	7,80379352E-008
2	0	0	1	0	11,2641	-0,799050272	-0,799685895	-0,00010034076033386843	1	-8,71725831E-007	415,67038	0	0,6766823005791671	8,02410938E-008
2	0	0	1	0	11,4441	-0,817050338	-0,817655742	-0,0001070722330645793	1	-8,95478593E-007	415,67038	0	0,68377650007314778	8,75482229E-008
2	0	0	1	0	11,6241	-0,835050344	-0,835759223	-0,00011019800705238747	1	-9,19956562E-007	415,67038	0	0,69132585776516774	9,20990004E-008
2	0	0	1	0	11,8041	-0,853050232	-0,85374707	-0,00011811630200422955	1	-9,45598515E-007	415,67038	0	0,70001372623868237	1,00841447E-007
2	0	0	1	0	11,9841	-0,871050298	-0,871705711	-0,00013438674949085014	1	-9,73348392E-007	415,67038	0	0,7105663740370944	1,17145696E-007
2	0	0	1	0	12,1641	-0,889050364	-0,889749944	-0,0001647851406986721	1	-1,00505815E-006	415,67038	0	0,72483642406200013	1,46617566E-007
2	0	0	1	0	12,3441	-0,907050312	-0,907717049	-0,00022576702093302525	1	-1,04460173E-006	415,67038	0	0,74689981208652173	2,04932576E-007
2	0	0	1	0	12,5241	-0,925050318	-0,925740182	-0,00034959272725724243	1	-1,10006829E-006	415,67038	0	0,7842344263509536	3,23632037E-007
2	0	0	1	0	12,7041	-0,943050325	-0,943719506	-0,0005708677400003831	1	-1,18593971E-006	415,67038	0	0,85065071901340749	5,38739016E-007
2	0	0	1	0	12,8841	-0,961050332	-0,961682677	-0,00090383288306838605	1	-1,32196544E-006	415,67038	0	0,96327262805331763	8,69200449E-007
2	0	0	1	0	13,0641	-0,979050338	-0,979770839	-0,0012565470192624323	1	-1,52160226E-006	415,67038	0	1,131328131812377	1,23112818E-006
2	0	0	1	0	13,2441	-0,997050405	-0,997768581	-0,0014667109130880874	1	-1,77416189E-006	415,67038	0	1,3411604066270488	1,46343802E-006
2	0	0	1	0	13,4246	-1,01509929	-1,01579583	-0,0014782922364512672	1	-2,04707862E-006	415,67041	0	1,5605729641609866	1,50164306E-006
2	0	0	1	0	13,6053	-1,03317046	-1,03383708	-0,0013766506128472592	1	-2,31017884E-006	415,67038	0	1,7632737352223648	1,42323245E-006
2	0	0	1	0	13,7861	-1,05125046	-1,05190408	-0,0012557437849911902	1	-2,55253667E-006	415,67038	0	1,9412102727272531	1,32092202E-006
2	0	0	1	0	13,9669	-1,06933045	-1,07001162	-0,0011505203755835888	1	-2,7745441E-006	415,67038	0	2,0961748381243472	1,2310702E-006
2	0	0	1	0	14,1477	-1,08741033	-1,08807766	-0,0010707695294657101	1	-2,97992437E-006	415,67038	0	2,2326726667422858	1,16508045E-006
2	0	0	0	0	14,3284	-1,10547924	-1,10614002	-0,0010081965111478603	1	-3,17235913E-006	415,67041	0	2,3544392104140634	1,11520649E-006
2	0	0	0	0	14,5092	-1,12355936	-1,12419796	-0,00096171705552845069	1	-3,35501909E-006	415,67041	0	2,4647307863705658	1,08116035E-006
2	0	0	0	0	14,6899	-1,14163053	-1,14226389	-0,00092652571730036416	1	-3,53019914E-006	415,67038	0	2,5658838479807747	1,05833692E-006
2	0	0	1	0	14,8710	-1,15973949	-1,16038847	-0,00090233985968445069	1	-3,70028965E-006	415,67041	0	2,6600807400843514	1,04706476E-006
2	0	0	1	0	15,0517	-1,17781031	-1,17838693	-0,00088551964249985318	1	-3,86620832E-006	415,67038	0	2,7487656352632944	1,04348476E-006
2	0	0	1	0	15,2325	-1,19589031	-1,1965127	-0,00087457524719674291	1	-4,02983278E-006	415,67038	0	2,832934298456648	1,04644039E-006
2	0	0	0	0	15,4132	-1,21395934	-1,21457756	-0,00087143844118663104	1	-4,19222306E-006	415,67041	0	2,9140806776771891	1,05842958E-006
2	0	0	0	0	15,5940	-1,23203933	-1,2326684	-0,00087488550753612659	1	-4,35449465E-006	415,67041	0	2,9930034972853094	1,07844369E-006
2	0	0	0	0	15,7747	-1,25011051	-1,25073636	-0,0008796985968585504	1	-4,51726282E-006	415,67038	0	3,0703337985227616	1,10027099E-006
2	0	0	0	0	15,9555	-1,2681905	-1,26877153	-0,000886802808054192	1	-4,68121834E-006	415,67038	0	3,1466958759015942	1,12515011E-006
2	0	0	1	0	16,1365	-1,28629053	-1,28690505	-0,0008990420237751095	1	-4,84707653E-006	415,67038	0	3,2222696120218822	1,15698174E-006
2	0	0	1	0	16,3173	-1,30437052	-1,30497158	-0,00091312642804328154	1	-5,01507111E-006	415,67038	0	3,2975887954299117	1,19160404E-006
2	0	0	0	0	16,4980	-1,32243943	-1,32305884	-0,00093349635893168013	1	-5,18596789E-006	415,67041	0	3,3730581866771462	1,23507061E-006
2	0	0	1	0	16,6790	-1,34053946	-1,34114897	-0,00095709871953885555	1	-5,36101516E-006	415,67041	0	3,4496374100542829	1,28361194E-006
2	0	0	1	0	16,8598	-1,35861993	-1,35926926	-0,00098947072919485824	1	-5,54077906E-006	415,67041	0	3,5275661618024416	1,34495713E-006
2	0	0	1	0	17,0405	-1,37669051	-1,37727582	-0,0010262473893625965	1	-5,72652834E-006	415,67038	0	3,6080358095588646	1,41342571E-006
2	0	0	1	0	17,2213	-1,39476991	-1,39535463	-0,0010737471311745469	1	-5,91990647E-006	415,67038	0	3,6916412635575552	1,49825803E-006
2	0	0	0	0	17,4020	-1,41283941	-1,41345453	-0,0011306976224526866	1	-6,12240729E-006	415,67041	0	3,7793467910123405	1,59818967E-006
2	0	0	0	0	17,5827	-1,43091059	-1,43154931	-0,0012000929553227862	1	-6,33629907E-006	415,67038	0	3,8725302500172493	1,71799229E-006
2	0	0	1	0	17,7638	-1,44901955	-1,44962454	-0,001293771750356297	1	-6,56536258E-006	415,67041	0	3,9736357759153222	1,87548324E-006
2	0	0	1	0	17,9445	-1,46709049	-1,46769047	-0,0014279369308592483	1	-6,81416896E-006	415,67038	0	4,0852594541426406	2,09576933E-006
2	0	0	0	0	18,1255	-1,48519063	-1,48576128	-0,0016205220480466976	1	-7,0926526E-006	415,67038	0	4,2134822268896902	2,40770896E-006
2	0	0	1	0	18,3062	-1,50325942	-1,50382519	-0,001881494364965864	1	-7,4116856E-006	415,67041	0	4,3645135426704365	2,8294387E-006
2	0	0	1	0	18,4869	-1,52133048	-1,52190566	-0,0021952280767436605	1	-7,7829518E-006	415,67038	0	4,5447127704580666	3,34093011E-006
2	0	0	1	0	18,6677	-1,53941059	-1,53999972	-0,0025372959455700339	1	-8,21414415E-006	415,67038	0	4,7576412323639597	3,90743526E-006
2	0	0	0	0	18,8484	-1,55747938	-1,55807889	-0,002904109611386551	1	-8,70925032E-006	415,67041	0	5,0046750900924877	4,52483164E-006
2	0	0	1	0	19,0293	-1,57557058	-1,57614911	-0,0032987031368783821	1	-9,2736791E-006	415,67038	0	5,2879604800331334	5,19924788E-006
2	0	0	0	0	19,2101	-1,59364843	-1,59424496	-0,0037298849683449165	1	-9,91231718E-006	415,67041	0	5,6091189541037146	5,94635048E-006
2	0	0	1	0	19,3910	-1,6117394	-1,61232638	-0,0041825533720106464	1	-1,06314301E-005	415,67041	0	5,9706679129504653	6,74364128E-006
2	0	0	0	0	19,5719	-1,62983048	-1,63036728	-0,0046525221656147085	1	-1,14345239E-005	415,67038	0	6,3734106675110963	7,58531996E-006
2	0	0	1	0	19,7529	-1,6479305	-1,64854991	-0,0051265351359784659	1	-1,23238042E-005	415,67038	0	6,8166082828920422	8,45134946E-006
2	0	0	0	0	19,9335	-1,66599047	-1,66665304	-0,0055827083480452058	1	-1,32951263E-005	415,67038	0	7,2973870363506586	9,30443821E-006
2	0	0	0	0	20,1143	-1,68407047	-1,68475342	-0,0059983608003485184	1	-1,43466596E-005	415,67038	0	7,8131437621364045	1,01057585E-005
2	0	0	1	0	20,2950	-1,70213962	-1,70277715	-0,0063600600416672448	1	-1,54685222E-005	415,67041	0	8,3576193483477043	1,08297645E-005
2	0	0	0	0	20,4759	-1,72023058	-1,72094107	-0,0066384395525490304	1	-1,66495865E-005	415,67038	0	8,9227029764580621	1,1424363E-005
2	0	0	1	0	20,6569	-1,7383306	-1,73896658	-0,0068009008600232602	1	-1,78713744E-005	415,67038	0	9,498884232555639	1,18265398E-005
2	0	0	0	0	20,8376	-1,75639963	-1,75701737	-0,0068495607803621965	1	-1,911045E-005	415,67041	0	10,072378012337264	1,20347977E-005
2	0	0	0	0	21,0184	-1,77447951	-1,77510273	-0,0068140161777894554	1	-2,03508571E-005	415,67041	0	10,634882328435117	1,20955783E-005
2	0	0	0	0	21,1992	-1,79255939	-1,79319477	-0,0067333826956049165	1	-2,15800355E-005	415,67041	0	11,180364296591018	1,2074267E-005
2	0	0	0	0	21,3799	-1,81063056	-1,81126249	-0,006664508775046624	1	-2,27945875E-005	415,67038	0	11,707976470732365	1,20711748E-005
2	0	0	0	0	21,5607	-1,82871079	-1,82934761	-0,0066202938676149862	1	-2,39991459E-005	415,67038	0	12,22057672290295	1,21108187E-005
2	0	0	0	0	21,7415	-1,84679067	-1,8473841	-0,0066211815543570714	1	-2,51999954E-005	415,67038	0	12,722223356947272	1,22318652E-005
2	0	0	1	0	21,9222	-1,86485946	-1,8654567	-0,0066605941664950387	1	-2,64037262E-005	415,67041	0	13,216082271915973	1,242505E-005
2	1	0	0	0	22,0657	-1,86081338	-1,86147225	-0,0061918190377203968	1	-2,73361256E-005	415,67041	0	13,717059490784798	1,1525899E-005
2	1	0	0	0	22,2491	-1,84247088	-1,8431083	-0,0055573500639614912	1	-2,84056587E-005	415,67038	0	14,396702937183752	1,02427985E-005
2	1	0	1	0	22,4313	-1,82425082	-1,82488751	-0,0050723718856093555	1	-2,93684352E-005	415,67038	0	15,033455784525581	9,25650784E-006
2	1	0	0	0	22,6133	-1,80605316	-1,80669737	-0,0046627852113653702	1	-3,0249028E-005	415,67041	0	15,639368276355194	8,42424197E-006
2	1	0	0	0	22,7961	-1,78777313	-1,78838122	-0,0043107373979235712	1	-3,10639189E-005	415,67041	0	16,223501098950307	7,7092418E-006
2	1	0	0	0	22,9787	-1,76951087	-1,7701304	-0,0040123410925795891	1	-3,1818854E-005	415,67038	0	16,786725837011715	7,10236691E-006
2	1	0	0	0	23,1613	-1,75125313	-1,75187576	-0,0037713817762971974	1	-3,25245746E-005	415,67041	0	17,334807675240621	6,60699243E-006
2	1	0	0	0	23,3439	-1,73299086	-1,73362136	-0,0035658402178485421	1	-3,31895826E-005	415,67038	0	17,871766040902493	6,18181684E-006
2	1	0	1	0	23,5270	-1,71468198	-1,71536827	-0,0033986969756559238	1	-3,38226091E-005	415,67041	0	18,402106571530502	5,83001702E-006
2	1	0	0	0	23,7100	-1,69638193	-1,69707012	-0,0032485867175498368	1	-3,4426248E-005	415,67041	0	18,927445291371453	5,51307949E-006
2	1	0	1	0	23,8923	-1,67815316	-1,67883337	-0,0031043786782408314	1	-3,50010414E-005	415,67041	0	19,446726167292278	5,21173433E-006
2	1	0	0	0	24,0754	-1,65984404	-1,6605649	-0,0029538779968838054	1	-3,55515549E-005	415,67038	0	19,963305473657475	4,90510592E-006
2	1	0	1	0	24,2583	-1,64155316	-1,64220965	-0,0027854449184177392	1	-3,60721424E-005	415,67041	0	20,474408769646032	4,5742845E-006
2	1	0	0	0	24,4412	-1,62326193	-1,62381554	-0,0025886548721448214	1	-3,65593696E-005	415,67041	0	20,97732700761993	4,20349807E-006
2	1	0	0	0	24,6245	-1,60493314	-1,60551512	-0,0023745525089394899	1	-3,70103553E-005	415,67041	0	21,468549083173968	3,81237987E-006
2	1	0	0	0	24,8068	-1,58670187	-1,58728468	-0,0021406666301307526	1	-3,74178308E-005	415,67041	0	21,943597314650157	3,39784742E-006
2	1	0	1	0	24,9894	-1,56844199	-1,56906092	-0,0018965387154297325	1	-3,77821743E-005	415,67041	0	22,403037373428486	2,97578481E-006
2	1	0	0	0	25,1724	-1,55014181	-1,55072165	-0,0016466687430415162	1	-3,81019672E-005	415,67041	0	22,847194622588419	2,55352484E-006
2	1	0	0	0	25,3551	-1,53187132	-1,53247368	-0,0014041144599934546	1	-3,83762126E-005	415,67038	0	23,272143057213882	2,15176851E-006
2	1	0	0	0	25,5376	-1,51362181	-1,51423228	-0,0011777965184194237	1	-3,86072643E-005	415,67041	0	23,679913552113373	1,78345749E-006
2	1	0	1	0	25,7200	-1,4953841	-1,49602067	-0,00097675304972913267	1	-3,87989967E-005	415,67038	0	24,072083647254307	1,46124273E-006
2	1	0	0	0	25,9032	-1,47706199	-1,47764814	-0,00080349984366673638	1	-3,89572342E-005	415,67041	0	24,454751346264608	1,18729008E-006
2	1	0	1	0	26,0860	-1,45878398	-1,45939827	-0,00066466550334571584	1	-3,90865971E-005	415,67038	0	24,826115291067478	9,70011683E-007
2	1	0	1	0	26,2694	-1,44044185	-1,441046	-0,00055465257849915578	1	-3,91935464E-005	415,67041	0	25,193697773994528	7,9927986E-007
2	1	0	1	0	26,4527	-1,42211294	-1,42275083	-0,0004694594727189319	1	-3,92827569E-005	415,67041	0	25,557659970791411	6,67923871E-007
2	1	0	0	0	26,6349	-1,40389287	-1,40454686	-0,00040639617421695322	1	-3,93580631E-005	415,67041	0	25,919814291893283	5,70802456E-007
2	1	0	0	0	26,8175	-1,38563073	-1,38626218	-0,00035896419234105261	1	-3,94235431E-005	415,67038	0	26,285750081742413	4,97618487E-007
2	1	0	0	0	27,0004	-1,36734188	-1,36795199	-0,00032422335922809107	1	-3,94816634E-005	415,67041	0	26,656309929579939	4,43521998E-007
2	1	0	0	0	27,1838	-1,34900415	-1,34965372	-0,00029959745284820358	1	-3,95343886E-005	415,67038	0	27,032373615937709	4,04352818E-007
2	1	0	0	0	27,3671	-1,3306706	-1,33128786	-0,00027849229189469763	1	-3,9583043E-005	415,67038	0	27,41651798993639	3,70753412E-007
2	1	0	1	0	27,5498	-1,31240189	-1,31308746	-0,00026793150278021146	1	-3,9628605E-005	415,67041	0	27,805278510573373	3,51817505E-007
2	1	0	0	0	27,7330	-1,29408348	-1,29471934	-0,00025685346158025626	1	-3,9672148E-005	415,67038	0	28,20616349901248	3,32553157E-007
2	1	0	0	0	27,9159	-1,27579081	-1,27640522	-0,00024765249732856787	1	-3,97140175E-005	415,67038	0	28,615328766085651	3,16104945E-007
2	1	0	1	0	28,1003	-1,25735295	-1,25803435	-0,00024189696890224176	1	-3,97549484E-005	415,67041	0	29,036128530502266	3,04314682E-007
2	1	0	0	0	28,2836	-1,2390219	-1,23966563	-0,00023738012725220979	1	-3,97946133E-005	415,67041	0	29,467479233659814	2,94271985E-007
2	1	0	1	0	28,4671	-1,22067297	-1,22132039	-0,00023422910718123987	1	-3,98334523E-005	415,67041	0	29,9097429233136	2,86068797E-007
2	1	0	0	0	28,6501	-1,20237291	-1,20304644	-0,00022987936296145094	1	-3,98714947E-005	415,67041	0	30,36217960931952	2,76555539E-007
2	1	0	0	0	28,8333	-1,18405306	-1,18472755	-0,0002273655080913448	1	-3,99090932E-005	415,67041	0	30,828280128697568	2,69366183E-007
2	1	0	1	0	29,0165	-1,16573071	-1,16640496	-0,00022584157411050595	1	-3,99464152E-005	415,67038	0	31,307728653028128	2,6342272E-007
2	1	0	1	0	29,1994	-1,14744186	-1,14811504	-0,00022633440097921197	1	-3,99836135E-005	415,67041	0	31,800286428784333	2,59857927E-007
2	1	0	1	0	29,3826	-1,12912118	-1,12980843	-0,00022638501017861226	1	-4,00209319E-005	415,67041	0	32,308064743276307	2,55771681E-007
2	1	0	1	0	29,5655	-1,11083305	-1,1114819	-0,00022877663041994019	1	-4,00582758E-005	415,67041	0	32,831824011635802	2,54281076E-007
2	1	0	1	0	29,7491	-1,09247291	-1,09318745	-0,00022603658112764403	1	-4,00956669E-005	415,67041	0	33,370799143738963	2,4710036E-007
2	1	0	1	0	29,9327	-1,07411289	-1,07479203	-0,00022264457451529398	1	-4,01325597E-005	415,67041	0	33,929059633590733	2,39296611E-007
2	1	0	0	0	30,1157	-1,05581284	-1,05652571	-0,00021271293796152909	1	-4,01681791E-005	415,67041	0	34,500226612608774	2,24736681E-007
2	1	0	1	0	30,2988	-1,03750396	-1,03819168	-0,00019808645107428131	1	-4,02015939E-005	415,67038	0	35,089803233209523	2,05651702E-007
2	1	0	0	0	30,4826	-1,01912403	-1,01983392	-0,00017504216152608832	1	-4,02316145E-005	415,67038	0	35,696335816632781	1,78513929E-007
2	1	0	0	0	30,6659	-1,00079584	-1,00151706	-0,00014422913617488698	1	-4,02566729E-005	415,67038	0	36,317256467014726	1,44447938E-007
2	1	0	1	0	30,8482	-0,982561707	-0,983329535	-0,00011391084491110554	1	-4,02758269E-005	415,67041	0	36,949281362614067	1,12011897E-007
2	1	0	0	0	31,0308	-0,964301646	-0,965023696	-8,0671188520200141E-005	1	-4,02891092E-005	415,67041	0	37,601620445634675	7,78496059E-008
2	1	0	0	0	31,2132	-0,94606173	-0,946782231	-5,6518807834946266E-005	1	-4,02972473E-005	415,67041	0	38,269563106074163	5,35110019E-008
2	1	0	0	0	31,3952	-0,927861691	-0,928611696	-3,7841834649141299E-005	1	-4,03015256E-005	415,67041	0	38,954766959617472	3,51403706E-008
2	1	0	0	0	31,5776	-0,909621596	-0,910350025	-2,6672944904672131E-005	1	-4,03032536E-005	415,67041	0	39,665766298198349	2,42817162E-008
2	1	0	0	0	31,7600	-0,891381741	-0,892097771	-2,1748226887040362E-005	1	-4,03033955E-005	415,67041	0	40,401104431604275	1,94015453E-008
2	1	0	1	0	31,9426	-0,873121679	-0,873872757	-1,7967357791113008E-005	1	-4,03025588E-005	415,67041	0	41,161923303085408	1,57011844E-008
2	1	0	1	0	32,1250	-0,854881644	-0,855568469	-1,5161694305401325E-005	1	-4,03011618E-005	415,67041	0	41,954812312936077	1,29718671E-008
2	1	0	1	0	32,3078	-0,836601615	-0,837345481	-1,361099809267985E-005	1	-4,02994301E-005	415,67041	0	42,774686948119181	1,13971081E-008
2	1	0	1	0	32,4898	-0,818401635	-0,819064736	-1,2546220965766298E-005	1	-4,0297502E-005	415,67041	0	43,629603505163763	1,02761675E-008
2	1	0	0	0	32,6724	-0,800141633	-0,800786972	-1,3125134890909782E-005	1	-4,02954793E-005	415,67041	0	44,519121375159642	1,0510437E-008
2	1	0	0	0	32,8548	-0,781901658	-0,782569647	-1,3395169614676664E-005	1	-4,02934274E-005	415,67041	0	45,442349256508493	1,0482653E-008
2	1	0	0	0	33,0373	-0,763652742	-0,764252663	-1,2047258772948608E-005	1	-4,02913429E-005	415,67041	0	46,409971074006624	9,20714971E-009
2	1	0	0	0	33,2200	-0,745381594	-0,746067107	-1,3380637259974157E-005	1	-4,02892401E-005	415,67041	0	47,412280478577133	9,98285365E-009
2	1	0	1	0	33,4023	-0,727152228	-0,727781236	-1,4190513640263728E-005	1	-4,02871192E-005	415,67041	0	48,46463265163584	1,03275895E-008
2	1	0	1	0	33,5846	-0,708921611	-0,709572673	-1,3618678725093725E-005	1	-4,02849655E-005	415,67041	0	49,559825313695213	9,66344249E-009
2	1	0	1	0	33,7670	-0,690681577	-0,691334605	-1,3200171795229514E-005	1	-4,02827827E-005	415,67041	0	50,707421230864531	9,12573572E-009
2	1	0	0	0	33,9497	-0,672412634	-0,673100173	-1,237548404784829E-005	1	-4,02805344E-005	415,67041	0	51,909042568558675	8,32994029E-009
2	1	0	1	0	34,1321	-0,65417093	-0,654815316	-1,2856516479817629E-005	1	-4,02782352E-005	415,67038	0	53,172165798348422	8,41864356E-009
2	1	0	0	0	34,3144	-0,635941625	-0,636577845	-1,2133516360387146E-005	1	-4,02758669E-005	415,67041	0	54,494569260958317	7,72392728E-009
2	1	0	0	0	34,4968	-0,61770159	-0,618328333	-1,3376161921676834E-005	1	-4,0273444E-005	415,67041	0	55,885192065161792	8,27085955E-009
2	1	0	0	0	34,6794	-0,599443316	-0,600095034	-1,1904410354845942E-005	1	-4,02709447E-005	415,67038	0	57,347145749719802	7,14377757E-009
2	1	0	0	0	34,8620	-0,581181526	-0,581857681	-1,0670621700946614E-005	1	-4,026838E-005	415,67041	0	58,887751630154867	6,20878327E-009
2	1	0	1	0	35,0442	-0,562961578	-0,563612878	-1,185950357849044E-005	1	-4,0265706E-005	415,67041	0	60,513771369139354	6,68416877E-009
2	1	0	1	0	35,2266	-0,544721544	-0,545394778	-1,008960847110391E-005	1	-4,02629339E-005	415,67041	0	62,229254946176051	5,50281998E-009
2	1	0	1	0	35,4090	-0,526481509	-0,527147293	-8,7873978290821722E-006	1	-4,02600599E-005	415,67041	0	64,047446698506534	4,6322528E-009
2	1	0	0	0	35,5917	-0,508212626	-0,508907318	-7,6797023952170406E-006	1	-4,02570513E-005	415,67041	0	65,973960433957888	3,90825683E-009
2	1	0	0	0	35,7727	-0,490110397	-0,490772128	-7,2300679334497011E-006	1	-4,02539372E-005	415,67038	0	68,00734498034016	3,54831586E-009
2	1	0	0	0	35,9527	-0,47211042	-0,472778291	-7,650523697596352E-006	1	-4,0250703E-005	415,67038	0	70,152385861323968	3,61700159E-009
2	1	0	0	0	36,1327	-0,454110354	-0,454775333	-7,941994245742313E-006	1	-4,02473379E-005	415,67038	0	72,437843614669427	3,61182306E-009
2	1	0	0	0	36,3127	-0,436110348	-0,436789483	-6,1722298930857472E-006	1	-4,02438054E-005	415,67038	0	74,874499630116736	2,69596501E-009
2	1	0	0	0	36,4927	-0,418110341	-0,418801636	-4,1930756471219002E-006	1	-4,0240102E-005	415,67038	0	77,480717303313382	1,75606696E-009
2	1	0	0	0	36,6727	-0,400110364	-0,400751978	-4,0540407805036454E-006	1	-4,02362057E-005	415,67038	0	80,284434478101133	1,62466485E-009
2	1	0	0	0	36,8527	-0,382110357	-0,382819414	-2,8663807128199488E-006	1	-4,02320984E-005	415,67038	0	83,277949008389146	1,09730613E-009
2	1	0	0	0	37,0327	-0,364110351	-0,364787877	-2,1335158917451722E-006	1	-4,02277692E-005	415,67038	0	86,520952308319309	7,78280718E-010
2	1	0	0	0	37,2127	-0,346110314	-0,346811086	-2,942342327097113E-007	1	-4,0223189E-005	415,67038	0	90,015091991679514	1,02043693E-010
2	1	0	0	0	37,3927	-0,328110307	-0,328810692	1,1924346619183099E-006	1	-4,02183614E-005	415,67038	0,012441155356196912	91,249930501534758	3,92085253E-010
2	1	0	0	0	37,5727	-0,310110301	-0,310795248	2,4127593495524211E-006	1	-4,02132464E-005	415,67038	0,014116872898234901	95,148075019433152	7,49874163E-010
2	1	0	0	0	37,7527	-0,292110354	-0,292790771	3,1447866640192678E-006	1	-4,02078404E-005	415,67038	0,019941912458797888	95,148075019433152	9,2076452E-010
2	1	0	0	0	37,9327	-0,274110317	-0,27478382	5,211046715703552E-006	1	-4,02021251E-005	415,67038	0,02884825136554345	95,148075019433152	1,43191137E-009
2	1	0	0	0	38,1127	-0,256110311	-0,256764829	7,0310644874002637E-006	1	-4,01960715E-005	415,67038	0,037677579517402182	95,148075019433152	1,80533011E-009
2	1	0	0	0	38,2927	-0,238110244	-0,238850921	9,3226283576161318E-006	1	-4,0189625E-005	415,67038	0,047654380255750726	95,148075019433152	2,22671837E-009
2	1	0	0	0	38,4727	-0,220110342	-0,220761508	1,381194909817247E-005	1	-4,01827347E-005	415,67038	0,057649713925473843	95,148075019433152	3,04914671E-009
2	1	0	0	0	38,6527	-0,202110291	-0,20278576	1,504148627237543E-005	1	-4,01753241E-005	415,67038	0,069159309784849856	95,148075019433152	3,0501992E-009
2	1	0	0	0	38,8327	-0,184110269	-0,184803918	1,8935303143651235E-005	1	-4,01673024E-005	415,67038	0,082481092106743283	95,148075019433152	3,49931817E-009
2	1	0	0	0	39,0127	-0,166110262	-0,166834682	2,4390329411822365E-005	1	-4,01585421E-005	415,67038	0,097599716384293402	95,148075019433152	4,06915301E-009
2	1	0	0	0	39,1927	-0,148110241	-0,148848891	3,0697153185973395E-005	1	-4,01489415E-005	415,67038	0,11422807193545862	95,148075019433152	4,56923743E-009
2	1	0	0	0	39,3727	-0,130110294	-0,130823836	3,6576825097331411E-005	1	-4,01384095E-005	415,67038	0,13274159339246838	95,148075019433152	4,78512074E-009
2	1	0	0	0	39,5527	-0,112110265	-0,112845041	4,0663278488301997E-005	1	-4,01269317E-005	415,67038	0,15230701023792352	95,148075019433152	4,58864946E-009
2	1	0	0	0	39,7327	-0,0941102356	-0,0948275402	4,3865272740923405E-005	1	-4,01146062E-005	415,67038	0,17255438537533866	95,148075019433152	4,15963575E-009
2	1	0	0	0	39,9127	-0,0761102363	-0,0768392012	4,5183590382174534E-005	1	-4,01017205E-005	415,67038	0,19244326405657462	95,148075019433152	3,47187101E-009
2	1	0	0	0	40,0927	-0,0581102259	-0,0588141754	4,4350217410139744E-005	1	-4,00889076E-005	415,67038	0,20917100118958502	95,148075019433152	2,60842148E-009
2	1	0	0	0	40,2727	-0,0401102342	-0,0407911465	3,9712651848252582E-005	1	-4,00768295E-005	415,67038	0,22103296461307328	95,148075019433152	1,61992464E-009
2	1	0	0	0	40,4527	-0,0221102256	-0,0228264276	3,4120261748614272E-005	1	-4,00655626E-005	415,67038	0,22887884037021955	95,148075019433152	7,78843712E-010
2	1	0	0	0	40,6327	-0,00411021523	-0,00483155157	3,1167024020144077E-005	1	-4,00547506E-005	415,67038	0,23457546088969971	95,148075019433152	1,50585086E-010
2	1	0	0	0	40,8127	0,0138897803	0,0133075807	3,2095043410974899E-005	1	-4,00441095E-005	415,67038	0,23929156686056858	95,148075019433152	4,27107377E-010
2	1	0	0	0	40,9927	0,0318897702	0,0312762968	3,337902081125945E-005	1	-4,00335266E-005	415,67038	0,24347928908352765	95,148075019433152	1,04397213E-009
2	1	0	0	0	41,1727	0,0498897545	0,0492872596	3,4053256469908499E-005	1	-4,0022911E-005	415,67038	0,24710403818261091	95,148075019433152	1,67839165E-009
2	1	0	0	0	41,3527	0,0678897426	0,0673092529	3,3296101598149421E-005	1	-4,00122226E-005	415,67038	0,25081739635441606	95,148075019433152	2,24113572E-009
2	1	0	0	0	41,5327	0,0858897492	0,0853131711	3,3663789971838938E-005	1	-4,00014324E-005	415,67038	0,25451572659823075	95,148075019433152	2,87196467E-009
2	1	0	0	0	41,7127	0,103889734	0,103293441	3,4240034176940352E-005	1	-3,99905039E-005	415,67038	0,25816224961356554	95,148075019433152	3,53677088E-009
2	1	0	0	0	41,8927	0,121889748	0,121260159	3,6485529371451526E-005	1	-3,99794117E-005	415,67038	0,26192753285206189	95,148075019433152	4,42424097E-009
2	1	0	0	0	42,0727	0,139889717	0,13924548	3,7983925295748147E-005	1	-3,9968123E-005	415,67038	0,2659531324671407	95,148075019433152	5,28909005E-009
2	1	0	0	0	42,2527	0,157889679	0,157316223	3,8643086826907418E-005	1	-3,9956627E-005	415,67038	0,26999490222940531	95,148075019433152	6,07918427E-009
2	1	0	0	0	42,4327	0,175889686	0,175286978	3,9972293403946854E-005	1	-3,99448872E-005	415,67038	0,27465122620407968	95,148075019433152	7,00662239E-009
2	1	0	0	0	42,6127	0,193889707	0,19324863	4,2017615507910362E-005	1	-3,99328746E-005	415,67038	0,27955149581515754	95,148075019433152	8,11984702E-009
2	1	0	0	0	42,7927	0,211889714	0,211262092	4,5253946376234714E-005	1	-3,9920571E-005	415,67038	0,28475098273928496	95,148075019433152	9,5604431E-009
2	1	0	0	0	42,9727	0,229889691	0,229287624	4,9167861715803258E-005	1	-3,99079363E-005	415,67038	0,29033071928504742	95,148075019433152	1,12735821E-008
2	1	0	0	0	43,1527	0,247889608	0,247261897	5,0234915836187725E-005	1	-3,98949596E-005	415,67038	0,2963171891907895	95,148075019433152	1,24211805E-008
2	1	0	0	0	43,3327	0,265889615	0,265296996	5,1287725510388E-005	1	-3,98816082E-005	415,67038	0,30259709448422035	95,148075019433152	1,36064795E-008
2	1	0	0	0	43,5127	0,283889651	0,283295333	5,5637175934539162E-005	1	-3,98678822E-005	415,67038	0,30940898133284051	95,148075019433152	1,57617528E-008
2	1	0	0	0	43,6927	0,301889658	0,301307797	5,7914500264120768E-005	1	-3,98537341E-005	415,67038	0,31666054564406758	95,148075019433152	1,74500911E-008
2	1	0	0	0	43,8727	0,319889665	0,319307685	6,2238816100621056E-005	1	-3,98390948E-005	415,67038	0,32442533125007034	95,148075019433152	1,98733314E-008
2	1	0	0	0	44,0527	0,337889671	0,337291002	6,5313503890700646E-005	1	-3,98239172E-005	415,67038	0,33273872906897914	95,148075019433152	2,20296563E-008
2	1	0	0	0	44,2327	0,355889589	0,355313003	6,9701481253871309E-005	1	-3,98080701E-005	415,67038	0,34177782828656397	95,148075019433152	2,47658427E-008
2	1	0	0	0	44,4127	0,373889595	0,373328	7,5014962634979878E-005	1	-3,97914664E-005	415,67038	0,35165266696337728	95,148075019433152	2,80051857E-008
2	1	0	0	0	44,5927	0,391889602	0,391316295	8,0215367524105459E-005	1	-3,97740441E-005	415,67038	0,36230224184286176	95,148075019433152	3,13895789E-008
2	1	0	0	0	44,7727	0,409889609	0,409296095	8,5966058388988454E-005	1	-3,97558106E-005	415,67038	0,37347244755305766	95,148075019433152	3,51855718E-008
2	1	0	0	0	44,9527	0,427889645	0,42728442	8,914292283478985E-005	1	-3,97368785E-005	415,67038	0,38523791875899802	95,148075019433152	3,80893823E-008
2	1	0	0	0	45,1327	0,445889562	0,445327044	9,1845728963778138E-005	1	-3,97174299E-005	415,67038	0,39721164185551469	95,148075019433152	4,09013872E-008
2	1	0	0	0	45,3127	0,463889509	0,463304251	9,2959679456702566E-005	1	-3,96976466E-005	415,67038	0,40922325420131123	95,148075019433152	4,30686136E-008
2	1	0	0	0	45,4927	0,481889576	0,481332809	9,6217786802442867E-005	1	-3,96776741E-005	415,67038	0,42096867354691462	95,148075019433152	4,63127776E-008
2	1	0	1	0	45,6727	0,499884248	0,499295413	9,4695353327171238E-005	1	-3,96576106E-005	415,670349	0,43240655679442611	95,148075019433152	4,7280956E-008
2	1	0	1	0	45,8526	0,517864525	0,517332137	9,5503476181024986E-005	1	-3,96375508E-005	415,67038	0,44348160042212243	95,148075019433152	4,94070171E-008
2	1	0	1	0	46,0326	0,535865605	0,53526485	9,5350459127285146E-005	1	-3,9617531E-005	415,67038	0,4539948315719792	95,148075019433152	5,10377482E-008
2	1	0	1	0	46,2126	0,553865612	0,553236008	9,7616185366774042E-005	1	-3,95975476E-005	415,67038	0,46417700840463776	95,148075019433152	5,400479E-008
2	1	0	0	0	46,3927	0,571876645	0,571274698	9,6414417214887168E-005	1	-3,9577546E-005	415,67041	0,47393818642845267	95,148075019433152	5,50791164E-008
2	1	0	1	0	46,5727	0,589874029	0,589268982	9,7344835117670195E-005	1	-3,95573516E-005	415,67038	0,48359019291396538	95,148075019433152	5,73622927E-008
2	1	0	0	0	46,7533	0,607935429	0,607344329	0,00010312663347404085	1	-3,95364259E-005	415,67041	0,4936166568765705	95,148075019433152	6,26333758E-008
2	1	0	1	0	46,9354	0,626145899	0,625582397	0,00011627423719870835	1	-3,95138013E-005	415,67041	0,50502942217871238	95,148075019433152	7,27391125E-008
2	1	0	1	0	47,1164	0,644244373	0,643669248	0,00013821894211276915	1	-3,94882445E-005	415,67038	0,51919061384184384	95,148075019433152	8,89672833E-008
2	1	0	1	0	47,2973	0,662335277	0,661742449	0,00017548971047106797	1	-3,94573362E-005	415,67038	0,53837148320437299	95,148075019433152	1,16128987E-007
2	1	0	1	0	47,4770	0,680303216	0,679711938	0,00022427380831464144	1	-3,94187664E-005	415,67038	0,56458704837646976	95,148075019433152	1,52441586E-007
2	1	0	1	0	47,6577	0,698374808	0,697802663	0,0002750582537333823	1	-3,93708397E-005	415,67038	0,59895472481746816	95,148075019433152	1,9193638E-007
2	1	0	1	0	47,8383	0,716434717	0,71585542	0,00030874351388049824	1	-3,93152986E-005	415,67041	0,63921453338882829	95,148075019433152	2,21015711E-007
2	1	0	0	0	48,0214	0,734741628	0,734186053	0,00032057115239088934	1	-3,92548609E-005	415,67038	0,68231140092123507	95,148075019433152	2,35358868E-007
2	1	0	1	0	48,2034	0,752944767	0,752415776	0,00031838578297459533	1	-3,91939357E-005	415,67041	0,72432318393285235	95,148075019433152	2,39558489E-007
2	1	0	1	0	48,3855	0,77115494	0,770575881	0,00031301803457211987	1	-3,91337053E-005	415,67041	0,76437328715158566	95,148075019433152	2,41204134E-007
2	1	0	1	0	48,5659	0,789193749	0,788604915	0,00031066145133741306	1	-3,90748392E-005	415,67041	0,80211483245147315	95,148075019433152	2,44989138E-007
2	1	0	0	0	48,7480	0,807406843	0,806790531	0,00031155279730812627	1	-3,90156456E-005	415,67041	0,83882779035309222	95,148075019433152	2,51357847E-007
2	1	0	0	0	48,9275	0,825349629	0,824846208	0,00031752875277465869	1	-3,89567504E-005	415,67038	0,87430678612386176	95,148075019433152	2,6191239E-007
2	1	0	0	0	49,1075	0,843349934	0,842856407	0,00032556427600196563	1	-3,88965236E-005	415,67038	0,90992000923396109	95,148075019433152	2,74403931E-007
2	1	0	0	0	49,2875	0,861350358	0,860857248	0,00033849620964295117	1	-3,88343942E-005	415,67038	0,94612947275599053	95,148075019433152	2,9139693E-007
2	1	0	0	0	49,4675	0,879350662	0,878851831	0,00035392324648934362	1	-3,87697E-005	415,67038	0,98344565226410611	95,148075019433152	3,1104608E-007
2	1	0	0	0	49,6475	0,897350967	0,896825969	0,00037384293305446106	1	-3,87017863E-005	415,67038	1,0223207839144792	95,148075019433152	3,35272063E-007
2	1	0	0	0	49,8275	0,915351272	0,914821804	0,00039793867966565235	1	-3,86300089E-005	415,67038	1,063173313908981	95,148075019433152	3,6404299E-007
2	1	0	0	0	50,0075	0,933351696	0,932854176	0,00042535704131440102	1	-3,85536987E-005	415,67038	1,1064523198220011	95,148075019433152	3,96796082E-007
2	1	0	0	0	50,1875	0,951352	0,950854838	0,00045504686772801856	1	-3,84722371E-005	415,67038	1,1526360103745586	95,148075019433152	4,32683521E-007
2	1	0	0	0	50,3667	0,969269753	0,968771458	0,00048917401916600928	1	-3,83853221E-005	415,67038	1,2018405398525389	95,148075019433152	4,73897813E-007
2	1	0	0	0	50,5467	0,987269938	0,986768603	0,00052520588180988806	1	-3,82917533E-005	415,67038	1,2546916963843269	95,148075019433152	5,18256684E-007
2	0	0	0	1	50,6851	0,998949409	0,998413265	0,00049757979659740582	1	-3,82161015E-005	415,67038	1,2997310316779037	95,148075019433152	4,96790278E-007
2	0	0	0	1	50,8651	0,980949402	0,980431616	0,0003986489419659008	1	-3,81386781E-005	415,67038	1,3769496178427736	95,148075019433152	3,90848015E-007
2	0	0	0	1	51,0451	0,962949514	0,962388039	0,00033941335151978195	1	-3,8074606E-005	415,67038	1,4464052098063126	95,148075019433152	3,26647353E-007
2	0	0	0	1	51,2251	0,944949508	0,944376469	0,00029429232283387533	1	-3,8019858E-005	415,67038	1,510640119305928	95,148075019433152	2,77922737E-007
2	0	0	0	1	51,4051	0,926949441	0,926371574	0,0002601391206314336	1	-3,7972266E-005	415,67038	1,5711406976401894	95,148075019433152	2,40985486E-007
2	0	0	0	1	51,5851	0,908949554	0,908376276	0,00023093844854908067	1	-3,79304001E-005	415,67038	1,6288214224376051	95,148075019433152	2,09779003E-007
2	0	0	0	1	51,7651	0,890949547	0,890376449	0,00020696079799994474	1	-3,78931982E-005	415,67038	1,6844976413196816	95,148075019433152	1,8427302E-007
2	0	0	0	1	51,9451	0,872949541	0,872419178	0,00018838706303445085	1	-3,7859867E-005	415,67038	1,7387152839924867	95,148075019433152	1,64352485E-007
2	0	0	0	1	52,1251	0,854949594	0,854387164	0,0001712229522916847	1	-3,78297918E-005	415,67038	1,7919169163541798	95,148075019433152	1,46290688E-007
2	0	0	0	1	52,3051	0,836949587	0,83639276	0,00015588052767605795	1	-3,78025106E-005	415,67038	1,8442950132577402	95,148075019433152	1,30377344E-007
2	0	0	0	1	52,4851	0,81894964	0,818398416	0,0001444528563811936	1	-3,77777287E-005	415,67038	1,8962307929500461	95,148075019433152	1,18219987E-007
2	0	0	0	1	52,6651	0,800949633	0,800309122	0,00013099410459385848	1	-3,77554024E-005	415,67038	1,9478618268358083	95,148075019433152	1,04835777E-007
2	0	0	0	1	52,8451	0,782949567	0,782286525	0,00011439032456457034	1	-3,77356628E-005	415,67038	1,9987042329749008	95,148075019433152	8,94860079E-008
2	0	0	0	1	53,0251	0,764949679	0,76430279	9,2718460860540582E-005	1	-3,77192227E-005	415,67038	2,0481611225292714	95,148075019433152	7,08649779E-008
2	0	0	0	1	53,2051	0,746949673	0,746271729	6,0820834196001395E-005	1	-3,77074794E-005	415,67038	2,0949383537634957	95,148075019433152	4,53888696E-008
2	0	0	0	1	53,3851	0,728949666	0,728322506	1,629028862139071E-005	1	-3,77026845E-005	415,67038	2,1364407917890742	95,148075019433152	1,1864584E-008
2	0	0	0	1	53,5651	0,710949659	0,710308075	-3,9687191824548922E-005	1	-3,77070755E-005	415,67038	2,14480350724216	65,490853126472832	2,81901329E-008
2	0	0	0	1	53,7451	0,692949593	0,692341983	-9,3012118171779392E-005	1	-3,77215874E-005	415,67038	2,14480350724216	67,493161159109235	6,43961968E-008
2	0	0	0	1	53,9251	0,674949586	0,674324393	-0,00012780771114768454	1	-3,77442266E-005	415,67038	2,14480350724216	69,640363950072256	8,618386E-008
2	0	0	0	1	54,1051	0,656949699	0,656289816	-0,0001405738008650963	1	-3,77710567E-005	415,67038	2,14480350724216	71,935383445378176	9,2257153E-008
2	0	0	0	1	54,2851	0,638949692	0,638292968	-0,00013892966654494509	1	-3,77986544E-005	415,67038	2,14480350724216	74,37961052408192	8,86778295E-008
2	0	0	0	1	54,4651	0,620949686	0,620277464	-0,00013178527737971656	1	-3,78253753E-005	415,67038	2,14480350724216	76,99337121202135	8,17434369E-008
2	0	0	0	1	54,6451	0,602949619	0,602300704	-0,00012551196146815555	1	-3,78509503E-005	415,67038	2,14480350724216	79,785503726332134	7,5595942E-008
2	0	0	0	1	54,8251	0,584949613	0,584325492	-0,0001220570209439799	1	-3,78757468E-005	415,67038	2,14480350724216	82,782457119973197	7,13210255E-008
2	0	0	0	1	55,0051	0,566949725	0,566317081	-0,00012070184873149726	1	-3,79002631E-005	415,67038	2,14480350724216	86,015196506432832	6,83555186E-008
2	0	0	0	1	55,1851	0,548949718	0,548283994	-0,00012430838440698243	1	-3,79249941E-005	415,67038	2,14480350724216	89,512072896883738	6,81562966E-008
2	0	0	0	1	55,3651	0,530949652	0,53030467	-0,00012799951362969797	1	-3,79502526E-005	415,67038	2,14480350724216	93,290516670522125	6,78787373E-008
2	0	0	0	1	55,5451	0,512949705	0,512278259	-0,00013148627758590229	1	-3,79761805E-005	415,67038	2,14480350724216	97,409803198307456	6,73575613E-008
2	0	0	0	1	55,7251	0,494949728	0,494320005	-0,00013351233216876832	1	-3,80027523E-005	415,67038	2,14480350724216	101,88815128607648	6,5997817E-008
2	0	0	0	1	55,9051	0,476949751	0,476338267	-0,00013357515459383115	1	-3,80297242E-005	415,67038	2,14480350724216	106,79949375821211	6,36269561E-008
2	0	0	0	1	56,0851	0,458949775	0,458355933	-0,00013242350505487056	1	-3,80567326E-005	415,67038	2,14480350724216	112,20145754924237	6,06970971E-008
2	0	0	0	1	56,2651	0,440949827	0,440276623	-0,00012916958108258962	1	-3,80833917E-005	415,67038	2,14480350724216	118,20368180782216	5,68703484E-008
2	0	0	0	1	56,4451	0,422949791	0,422271758	-0,00012344737106822741	1	-3,8109265E-005	415,67038	2,14480350724216	124,84448924679688	5,2128339E-008
2	0	0	0	1	56,6251	0,404949754	0,404268354	-0,0001147727608697903	1	-3,81340105E-005	415,67038	2,14480350724216	132,26215203361608	4,63989949E-008
2	0	0	0	1	56,8051	0,386949778	0,386311144	-0,00010538873432084816	1	-3,81573082E-005	415,67038	2,14480350724216	140,57928025101643	4,07128411E-008
2	0	0	0	1	56,9851	0,368949831	0,368353009	-9,4221550317510118E-005	1	-3,81789469E-005	415,67038	2,14480350724216	149,99670851206787	3,47067903E-008
2	0	0	0	1	57,1651	0,350949854	0,350305349	-8,3373480053020966E-005	1	-3,8198883E-005	415,67038	2,14480350724216	160,80578311264547	2,92061753E-008
2	0	0	0	1	57,3451	0,332949787	0,332290888	-7,4192988719052646E-005	1	-3,82171675E-005	415,67038	2,14480350724216	173,25074452133834	2,46536533E-008
2	0	0	0	1	57,5251	0,314949811	0,314303041	-6,8078794416386906E-005	1	-3,82340004E-005	415,67038	2,14480350724216	187,74166260585802	2,13973728E-008
2	0	0	0	1	57,7051	0,296949804	0,296326756	-6,0281951225473523E-005	1	-3,82495818E-005	415,67038	2,14480350724216	204,84741996241418	1,78631545E-008
2	0	0	0	1	57,8851	0,278949887	0,278327405	-5,3773272171790112E-005	1	-3,82641483E-005	415,67038	2,14480350724216	225,39265749785168	1,49665755E-008
2	0	0	0	1	58,0651	0,26094988	0,260361701	-4,9577933687690835E-005	1	-3,82779108E-005	415,67038	2,14480350724216	250,44639291083238	1,29081954E-008
2	0	0	0	1	58,2451	0,242949873	0,242340177	-4,4346533459965453E-005	1	-3,82910657E-005	415,67038	2,14480350724216	281,85506977784746	1,07469464E-008
2	0	0	0	1	58,4251	0,224949867	0,224308163	-4,2365706047133242E-005	1	-3,83037877E-005	415,67038	2,14480350724216	322,27491263249107	9,50297352E-009
2	0	0	0	1	58,6051	0,206949845	0,206323847	-4,1167157182766554E-005	1	-3,83162151E-005	415,67038	2,14480350724216	376,03376087908538	8,49376658E-009
2	0	0	0	1	58,7851	0,188949898	0,188372716	-4,028185868701488E-005	1	-3,83284787E-005	415,67038	2,14480350724216	451,11495306511206	7,58800311E-009
2	0	0	0	1	58,9651	0,170949936	0,170350716	-3,8702220015358253E-005	1	-3,83406586E-005	415,67038	2,14480350724216	564,1631504283033	6,59295107E-009
2	0	0	0	1	59,1451	0,152949914	0,152356863	-3,8419960464795302E-005	1	-3,83528313E-005	415,67038	2,14480350724216	752,33625294708134	5,85354476E-009
2	0	0	0	1	59,3251	0,134949908	0,134359002	-3,8570723079912275E-005	1	-3,83650258E-005	415,67038	2,14480350724216	1128,7951458938589	5,1823239E-009
2	0	0	0	1	59,5051	0,116949916	0,116350055	-3,7764152023699238E-005	1	-3,8377264E-005	415,67038	2,14480350724216	2259,9635762779062	4,39386127E-009
2	0	0	0	1	59,6851	0,0989499167	0,0983421132	-3,8619301906955213E-005	1	-3,83895494E-005	415,67038	2,14480350724216	1325054,6539079048	3,79790377E-009
2	0	0	0	1	59,8651	0,080949977	0,0803799257	-3,812179133732505E-005	1	-3,84019004E-005	415,67038	2,14480350724216	2258,7788782373091	3,06422665E-009
2	0	0	0	1	60,0451	0,0629499629	0,0623337924	-4,0065767731639808E-005	1	-3,84143386E-005	415,67038	2,14480350724216	1127,9156866036766	2,49745136E-009
2	0	0	0	1	60,2251	0,0449499525	0,0443615541	-4,1023936024418189E-005	1	-3,84269224E-005	415,67038	2,14480350724216	752,73479350893568	1,81988558E-009
2	0	0	0	1	60,4051	0,0269499719	0,0263757408	-4,0897463756999302E-005	1	-3,84396844E-005	415,67038	2,14480350724216	564,79290585023398	1,07870091E-009
2	0	0	0	1	60,5851	0,00894998014	0,00837685913	-4,371333895840864E-005	1	-3,84526975E-005	415,67038	2,14480350724216	451,92028041303507	3,66180475E-010
2	0	0	0	1	60,6744	-1,53413566E-008	-0,000628865557	-5,2006020268891008E-005	1	-3,84592713E-005	415,670532	2,14480350724216	410,85155899463994	3,27047937E-011