File: Example_CV/Co_17_500mV_01_CV_02_CV_02_CV_C01.txt
EC-Lab ASCII FILE
Nb header lines : 53

Cyclic Voltammetry

Run on channel : 1 (SN 24330)
User :
CE vs. WE compliance from -10 V to 10 V
Electrode connection : standard
Ewe ctrl range : min = -2,50 V, max = 2,50 V
Safety Limits :
	Do not start on E overload
Acquisition started on : 10/05/2017 17:39:34
Saved on :
	File : Co_17_500mV_01_CV_02_CV_02_CV_C01.mpr
	Directory : C:\Users\usuario\Documents\EC-Lab\Data\Federico\R=H\CO2 reduction\CV_scan rates CO2_0,4 mM_GC 1mm_5-10-2017\
	Host : 192.168.1.115
Device : VSP (SN 1463)
Address : USB
EC-Lab for windows v11.10 (software)
Internet server v11.10 (firmware)
Command interpretor v11.10 (firmware)
Electrode material :
Initial state :
Electrolyte :
Comments :
Electrode surface area : 0,001 cm²
Characteristic mass : 0,001 g
Equivalent Weight : 0,000 g/eq.
Density : 0,000 g/cm3
Ei (V)              0,100
vs.                 Ref
dE/dt               500,000
dE/dt unit          mV/s
E1 (V)              -1,920
vs.                 Ref
Step percent        50
N                   20
E range min (V)     -2,500
E range max (V)     2,500
I Range             Auto
I Range min         Unset
I Range max         Unset
I Range init        Unset
Bandwidth           5
E2 (V)              1,000
vs.                 Ref
nc cycles           0
Reverse Scan        1
Ef (V)              0,000
vs.                 Ref

mode	ox/red	error	control changes	counter inc.	time/s	control/V	Ewe/V	<I>/mA	cycle number	(Q-Qo)/C	Rcmp/Ohm	Capacitance charge/µF	Capacitance discharge/µF	P/W
2	0	0	0	0	2,2728	0,0999704227	0,0990418121	-0,00015200732741504909	1	0	278,516663	0	0	1,50550807E-008
2	0	0	1	0	2,3069	0,0829203725	0,0823335648	-8,6024361256644582E-005	1	-2,64006195E-009	278,516449	0	0,16813417993846474	7,08269221E-009
2	0	0	1	0	2,3429	0,0649203882	0,0643567219	-9,3289352600316416E-005	1	-5,88370952E-009	278,516449	0	0,17495171107547635	6,00379702E-009
2	0	0	1	0	2,3789	0,0469203889	0,0463773608	-0,00010364158866444013	1	-9,45092005E-009	278,516449	0	0,18341098261571395	4,80662354E-009
2	0	0	1	0	2,4149	0,0289204009	0,0283211078	-0,0001117374426924968	1	-1,33215519E-008	278,516449	0	0,19157087129608707	3,1645282E-009
2	0	0	1	0	2,4509	0,0109204091	0,0103266798	-0,00012113486705351552	1	-1,75095138E-008	278,516449	0	0,20015444638524083	1,25092103E-009
2	0	0	1	0	2,4869	-0,00707958871	-0,00774818519	-0,00013146534202235173	1	-2,20536691E-008	278,516449	0	0,20909253949501677	1,01861786E-009
2	0	0	1	0	2,5229	-0,0250795968	-0,0257436372	-0,00014022119115515144	1	-2,69482801E-008	278,516449	0	0,21835295315135248	3,60980357E-009
2	0	0	1	0	2,5589	-0,0430796035	-0,0437687486	-0,00015131718862673235	1	-3,22183205E-008	278,516449	0	0,22786842245664778	6,62296396E-009
2	0	0	1	0	2,5949	-0,0610796064	-0,0617581569	-0,00016258404460095782	1	-3,78650356E-008	278,516449	0	0,23765200928991936	1,00408908E-008
2	0	0	1	0	2,6309	-0,0790796131	-0,0797380283	-0,00017370348463205744	1	-4,38979093E-008	278,516449	0	0,24764286766489206	1,3850773E-008
2	0	0	1	0	2,6669	-0,0970796198	-0,0977621377	-0,00018467552253821802	1	-5,03238091E-008	278,516449	0	0,25775778736100746	1,80542745E-008
2	0	0	1	0	2,7029	-0,115079619	-0,115784727	-0,00019327558878875184	1	-5,71366243E-008	278,516449	0	0,26795354199042426	2,23783605E-008
2	0	0	1	0	2,7389	-0,133079633	-0,133748502	-0,00020430791546968138	1	-6,43236291E-008	278,516449	0	0,27825935058228762	2,73258767E-008
2	0	0	1	0	2,7749	-0,151079655	-0,15175654	-0,00021436199734269165	1	-7,18590059E-008	278,516449	0	0,28841828594642656	3,25308349E-008
2	0	0	1	0	2,8109	-0,169079646	-0,169707254	-0,00022322002084401302	1	-7,97234847E-008	278,516449	0	0,29849581635243302	3,78820566E-008
2	0	0	1	0	2,8469	-0,187079653	-0,187717766	-0,00023162744531496554	1	-8,78919195E-008	278,516449	0	0,30831037739193363	4,34805862E-008
2	0	0	1	0	2,8829	-0,20507966	-0,205768004	-0,00023743843064942973	1	-9,63429798E-008	278,516449	0	0,31783706088186451	4,88572311E-008
2	0	0	1	0	2,9189	-0,223079666	-0,223717183	-0,0002447587102336144	1	-1,05053871E-007	278,516449	0	0,32720929823723469	5,47567289E-008
2	0	0	1	0	2,9549	-0,241079673	-0,241689518	-0,0002516987268833008	1	-1,13990353E-007	278,516449	0	0,33622788637494208	6,08329458E-008
2	0	0	1	0	2,9909	-0,259079695	-0,25973931	-0,00025878951691694038	1	-1,23152716E-007	278,516449	0	0,34490569720866861	6,72178118E-008
2	0	0	1	0	3,0269	-0,277079701	-0,2777282	-0,0002642638323732769	1	-1,32533586E-007	278,516449	0	0,35338774228770253	7,33935153E-008
2	0	0	1	0	3,0629	-0,295079708	-0,29567489	-0,00026923053721062502	1	-1,42137921E-007	278,516449	0	0,36168764659283539	7,96047104E-008
2	0	0	1	0	3,0989	-0,313079685	-0,31373167	-0,00027617895135353779	1	-1,51981311E-007	278,516449	0	0,36975933480948909	8,66460823E-008
2	0	0	1	0	3,1349	-0,331079721	-0,331756294	-0,00028318263167348986	1	-1,62065163E-007	278,516449	0	0,37773889505886496	9,39476195E-008
2	0	0	1	0	3,1709	-0,349079728	-0,349712491	-0,0002906938763314153	1	-1,72376289E-007	278,516449	0	0,38564810458696058	1,01659282E-007
2	0	0	1	0	3,2069	-0,367079735	-0,367706478	-0,00029490344753400467	1	-1,82889906E-007	278,516449	0	0,39333522334648371	1,08437909E-007
2	0	0	1	0	3,2429	-0,385079712	-0,385711432	-0,00029669078891982234	1	-1,9355312E-007	278,516449	0	0,4007384442532791	1,14437029E-007
2	0	0	1	0	3,2789	-0,403079718	-0,403715461	-0,00029941957919127693	1	-2,0431041E-007	278,516449	0	0,40780325331649261	1,20880316E-007
2	0	0	1	0	3,3149	-0,421079755	-0,421725988	-0,00030117173370800211	1	-2,15121318E-007	278,516449	0	0,41447278015417946	1,27011944E-007
2	0	0	1	0	3,3509	-0,439079762	-0,439742029	-0,00030253361554562054	1	-2,25969131E-007	278,516449	0	0,42076264723913306	1,3303675E-007
2	0	0	1	0	3,3869	-0,457079738	-0,457764655	-0,00030313498459271814	1	-2,368526E-007	278,516449	0	0,42670050644723053	1,38764477E-007
2	0	0	1	0	3,4229	-0,475079775	-0,475709796	-0,0003027765120368455	1	-2,47774892E-007	278,516449	0	0,43238658378246515	1,44033748E-007
2	0	0	1	0	3,4589	-0,493079752	-0,493734926	-0,00030486706885456128	1	-2,58739533E-007	278,516449	0	0,43774341720725043	1,50523519E-007
2	0	0	1	0	3,4949	-0,511079729	-0,5116871	-0,00030629426997189651	1	-2,69740468E-007	278,516449	0	0,44289995866538074	1,56726827E-007
2	0	0	1	0	3,5309	-0,529079795	-0,529699206	-0,00030844846017580045	1	-2,80787845E-007	278,516449	0	0,44779697986890637	1,63384911E-007
2	0	0	1	0	3,5669	-0,547079802	-0,547732353	-0,00030896105880030445	1	-2,91882827E-007	278,516449	0	0,45247182467337357	1,69227974E-007
2	0	0	1	0	3,6029	-0,565079808	-0,565704167	-0,00030932621563962112	1	-3,030313E-007	278,516449	0	0,45701752596058624	1,74987136E-007
2	0	0	1	0	3,6389	-0,583079755	-0,58368814	-0,00031174341706960864	1	-3,14228032E-007	278,516449	0	0,46139382165207629	1,81960942E-007
2	0	0	1	0	3,6749	-0,601079822	-0,601669967	-0,00031311198140010054	1	-3,25469443E-007	278,516449	0	0,46560160431541088	1,88390075E-007
2	0	0	1	0	3,7109	-0,619079888	-0,61969763	-0,00031483902993338554	1	-3,36758376E-007	278,516449	0	0,46963926584166893	1,95105002E-007
2	0	0	1	0	3,7469	-0,637079895	-0,637695551	-0,00031635670143259629	1	-3,48094915E-007	278,516449	0	0,47356207376867962	2,01739255E-007
2	0	0	1	0	3,7829	-0,655079901	-0,655711114	-0,00031606521395731443	1	-3,59483209E-007	278,516449	0	0,47735193745326432	2,07247467E-007
2	0	0	1	0	3,8189	-0,673079908	-0,673720539	-0,00031852766283248454	1	-3,7093335E-007	278,516449	0	0,48105056498460518	2,14598629E-007
2	0	0	1	0	3,8549	-0,691079795	-0,691713452	-0,00032080917260731955	1	-3,82435815E-007	278,516449	0	0,48465830355368211	2,21908024E-007
2	0	0	1	0	3,8909	-0,709079802	-0,709693491	-0,00032341396586101862	1	-3,94006747E-007	278,516449	0	0,48820350747024653	2,29524787E-007
2	0	0	1	0	3,9269	-0,727079809	-0,727663696	-0,00032455641462547648	1	-4,05650326E-007	278,516449	0	0,4916864185038841	2,36167921E-007
2	0	0	1	0	3,9629	-0,745079875	-0,745681822	-0,0003256335197288759	1	-4,17371808E-007	278,516449	0	0,49508225460786829	2,42818999E-007
2	0	0	1	0	3,9989	-0,763079822	-0,763717532	-0,00032775588530105459	1	-4,2916119E-007	278,516449	0	0,49840494361637018	2,50312922E-007
2	0	0	1	0	4,0349	-0,781079888	-0,781686306	-0,00033040088993330694	1	-4,41015686E-007	278,516449	0	0,50170262330588435	2,58269864E-007
2	0	0	1	0	4,0709	-0,799079895	-0,799653053	-0,00033350991889703494	1	-4,52947887E-007	278,516449	0	0,50495806861408352	2,66692211E-007
2	0	0	1	0	4,1069	-0,817079961	-0,817683637	-0,00033624707445991699	1	-4,64989171E-007	278,516449	0	0,50817020162425427	2,74943744E-007
2	0	0	1	0	4,1429	-0,835079968	-0,835786819	-0,00034203126115603213	1	-4,77225228E-007	278,516449	0	0,51143116019506931	2,85865212E-007
2	0	0	1	0	4,1789	-0,853079975	-0,853756607	-0,0003527587300117072	1	-4,89734532E-007	278,516449	0	0,51493835968415622	3,01170104E-007
2	0	0	1	0	4,2149	-0,871079981	-0,871771514	-0,00037109963121015027	1	-5,02725925E-007	278,516449	0	0,51880247454919872	3,23514087E-007
2	0	0	1	0	4,2509	-0,889079928	-0,889801741	-0,00040290006356108685	1	-5,16589978E-007	278,516449	0	0,52343222404537958	3,58501183E-007
2	0	0	1	0	4,2869	-0,907079875	-0,907798707	-0,00046201001196933363	1	-5,3206719E-007	278,516449	0	0,52956814678256902	4,19412089E-007
2	0	0	1	0	4,3229	-0,925079882	-0,925735772	-0,00057295829502603846	1	-5,50506059E-007	278,516449	0	0,53850419724904621	5,30407988E-007
2	0	0	1	0	4,3589	-0,943079889	-0,943785131	-0,00078479054284822438	1	-5,74544401E-007	278,516449	0	0,55262862363506496	7,4067367E-007
2	0	0	1	0	4,3949	-0,961079955	-0,961777687	-0,0011539652267509494	1	-6,08798757E-007	278,516449	0	0,57622066420858029	1,10985798E-006
2	0	0	1	0	4,4309	-0,979079902	-0,979747415	-0,0017157450492002042	1	-6,59880129E-007	278,516449	0	0,61498266629750912	1,68099677E-006
2	0	0	1	0	4,4669	-0,997079909	-0,997751474	-0,0024012427910580086	1	-7,33994341E-007	278,516449	0	0,67368208853704576	2,39584347E-006
2	0	0	1	0	4,5029	-1,01507998	-1,01570332	-0,0029778442148630029	1	-8,31578802E-007	278,516449	0	0,7513928228493097	3,02460626E-006
2	0	0	1	0	4,5389	-1,03307998	-1,03372228	-0,0032213008800298477	1	-9,44248825E-007	278,516449	0	0,83935542849422285	3,32993045E-006
2	0	0	1	0	4,5749	-1,05107999	-1,05173135	-0,0031653284055497094	1	-1,05987749E-006	278,516449	0	0,9266480289941687	3,32907507E-006
2	0	0	1	0	4,6109	-1,06908	-1,06972528	-0,0029651702290816666	1	-1,17035916E-006	278,516449	0	1,0066234643534267	3,17191757E-006
2	0	0	0	0	4,6471	-1,08718002	-1,08781433	-0,0027400975979712806	1	-1,27352371E-006	278,516449	0	1,0778761098057362	2,98071745E-006
2	0	0	0	0	4,6831	-1,10518003	-1,10582578	-0,0025457519341934438	1	-1,36857557E-006	278,516449	0	1,1403748178467054	2,81515804E-006
2	0	0	1	0	4,7193	-1,12328005	-1,12393677	-0,0023864179446072118	1	-1,45773231E-006	278,516449	0	1,1961694747805246	2,68218287E-006
2	0	0	1	0	4,7553	-1,14128006	-1,14187646	-0,0022604256005491242	1	-1,54127906E-006	278,516449	0	1,2460343478108064	2,58112686E-006
2	0	0	0	0	4,7915	-1,1593802	-1,15999424	-0,0021585280746277968	1	-1,62115339E-006	278,516449	0	1,2914109895335418	2,50388007E-006
2	0	0	0	0	4,8275	-1,1773802	-1,1780113	-0,0020797654008578928	1	-1,69735597E-006	278,516449	0	1,3327639929665624	2,44998705E-006
2	0	0	0	0	4,8635	-1,19538009	-1,19598639	-0,0020175079411106426	1	-1,77106926E-006	278,516449	0	1,3711116256043134	2,41291195E-006
2	0	0	0	0	4,8995	-1,2133801	-1,21403205	-0,0019736583861853578	1	-1,8428924E-006	278,516449	0	1,4069199169062774	2,39608448E-006
2	0	0	0	0	4,9355	-1,23138022	-1,23197949	-0,0019430169078244966	1	-1,91335516E-006	278,516449	0	1,4408582019493739	2,39375709E-006
2	0	0	0	0	4,9715	-1,24938023	-1,25002563	-0,0019215234689885136	1	-1,98287194E-006	278,516449	0	1,4730966332742144	2,40195368E-006
2	0	0	0	0	5,0075	-1,26738	-1,26800764	-0,0019062899169081104	1	-2,05173023E-006	278,516449	0	1,5040816670380739	2,41719022E-006
2	0	0	0	0	5,0435	-1,28538001	-1,28605068	-0,0018964636692065696	1	-2,12017335E-006	278,516449	0	1,5339006999790579	2,43894829E-006
2	0	0	0	0	5,0795	-1,30338001	-1,30401957	-0,0018932876641524749	1	-2,18839864E-006	278,516449	0	1,5628896208872173	2,46888408E-006
2	0	0	0	0	5,1155	-1,32138002	-1,32196927	-0,0018975240623986774	1	-2,25660756E-006	278,516449	0	1,5911671000530768	2,50846847E-006
2	0	0	0	0	5,1515	-1,33938003	-1,340011	-0,001908435685472304	1	-2,32505772E-006	278,516449	0	1,6188110646871354	2,55732471E-006
2	0	0	0	0	5,1875	-1,35737991	-1,35797846	-0,001929929188200289	1	-2,39407927E-006	278,516449	0	1,646258251790113	2,62080221E-006
2	0	0	0	0	5,2235	-1,37538004	-1,37601185	-0,0019641018531346109	1	-2,4641347E-006	278,516449	0	1,6736811596959139	2,7026274E-006
2	0	0	0	0	5,2595	-1,39338005	-1,3939836	-0,0020192115197891005	1	-2,53581447E-006	278,516449	0	1,7016271908492909	2,81474786E-006
2	0	0	0	0	5,2955	-1,41138005	-1,4120214	-0,0020974581021666909	1	-2,60984552E-006	278,516449	0	1,7304170164010698	2,96165581E-006
2	0	0	0	0	5,3315	-1,4293803	-1,42999411	-0,0022020995665068195	1	-2,68712552E-006	278,516449	0	1,7607604155488227	3,14898944E-006
2	0	0	0	0	5,3675	-1,4473803	-1,44798851	-0,0023413555486154342	1	-2,76883293E-006	278,516449	0	1,7932791881019581	3,39025587E-006
2	0	0	0	0	5,4035	-1,46538031	-1,465994	-0,002516353718754919	1	-2,85619831E-006	278,516449	0	1,8286995508232022	3,6889594E-006
2	0	0	0	0	5,4395	-1,48338044	-1,4839735	-0,0027352683226270275	1	-2,95068276E-006	278,516449	0	1,8678936936254941	4,05906576E-006
2	0	0	0	0	5,4755	-1,50138032	-1,50195408	-0,0030051671210218694	1	-3,05380195E-006	278,516449	0	1,91166155856724	4,51362303E-006
2	0	0	0	0	5,5115	-1,51938045	-1,51997244	-0,0033468913100142829	1	-3,16775981E-006	278,516449	0	1,9611922509290522	5,08718267E-006
2	0	0	0	0	5,5475	-1,53738034	-1,53798831	-0,003771269504747911	1	-3,29557997E-006	278,516449	0	2,0181993469127405	5,80016831E-006
2	0	0	0	0	5,5835	-1,55538023	-1,55593991	-0,004254665724195191	1	-3,44002547E-006	278,516449	0	2,0841656032918707	6,62000411E-006
2	0	0	0	0	5,6195	-1,57338011	-1,57390857	-0,0047472300926576608	1	-3,60220724E-006	278,516449	0	2,1593084267670061	7,47170634E-006
2	0	0	0	0	5,6555	-1,59138012	-1,59194982	-0,00522766605809008	1	-3,78185496E-006	278,516449	0	2,2430743222846803	8,32218211E-006
2	0	0	0	0	5,6915	-1,60938001	-1,609954	-0,0057005339439886867	1	-3,97853501E-006	278,516449	0	2,3350839834814048	9,17759735E-006
2	0	0	0	0	5,7275	-1,62738001	-1,62794495	-0,0062046056309076134	1	-4,19271009E-006	278,516449	0	2,4353632091532944	1,01007563E-005
2	0	0	0	0	5,7635	-1,64538002	-1,64602423	-0,0067525907537090355	1	-4,42583678E-006	278,516449	0	2,5443516727163834	1,11149284E-005
2	0	0	0	0	5,7995	-1,66338003	-1,6640296	-0,0073580025866823514	1	-4,67971859E-006	278,516449	0	2,6630589899244486	1,22439342E-005
2	0	0	0	0	5,8355	-1,68138003	-1,68208146	-0,0080200906776984602	1	-4,95631639E-006	278,516449	0	2,7921084850688064	1,34904458E-005
2	0	0	0	0	5,8715	-1,69938004	-1,70001876	-0,0087260569809203546	1	-5,25759697E-006	278,516449	0	2,9325238184813472	1,48344607E-005
2	0	0	0	0	5,9075	-1,71738029	-1,71803987	-0,0094488528675355789	1	-5,58475676E-006	278,516449	0	3,0842896185091968	1,62335054E-005
2	0	0	0	0	5,9435	-1,73538029	-1,73600316	-0,010131909468710576	1	-5,9375252E-006	278,516449	0	3,2470951023029901	1,75890273E-005
2	0	0	0	0	6,0095	-1,76838005	-1,7689935	-0,011154939900542922	1	-6,63510218E-006	278,516449	0	3,570523412870128	1,97330155E-005
2	0	0	0	0	6,0455	-1,78638005	-1,78699601	-0,011534487943208619	1	-7,04398826E-006	278,516449	0	3,7536789821558176	2,0612084E-005
2	0	0	0	0	6,0815	-1,80438006	-1,80501521	-0,011811004420355597	1	-7,46472006E-006	278,516449	0	3,9394519632207514	2,13190433E-005
2	0	0	0	0	6,1175	-1,82238007	-1,82301664	-0,012005141917478208	1	-7,89367732E-006	278,516449	0	4,1259766396833069	2,1885573E-005
2	0	0	0	0	6,1535	-1,84038007	-1,84098577	-0,012126817384533245	1	-8,32818478E-006	278,516449	0	4,3119021034133824	2,23252991E-005
2	0	0	0	0	6,1895	-1,8583802	-1,85900104	-0,012203081993854835	1	-8,76623744E-006	278,516449	0	4,4960769456925894	2,26855427E-005
2	0	0	0	0	6,2255	-1,87638021	-1,87700188	-0,012243416809054109	1	-9,20642469E-006	278,516449	0	4,6779732683433978	2,29809157E-005
2	0	0	0	0	6,2615	-1,89438021	-1,8949995	-0,012260050385233757	1	-9,64758783E-006	278,516449	0	4,8570586712594662	2,32327893E-005
2	0	0	0	0	6,2975	-1,91238034	-1,91303074	-0,012246398581785418	1	-1,00887082E-005	278,516449	0	5,032806991777136	2,34277377E-005
2	1	0	1	0	6,3200	-1,91656482	-1,91720665	-0,011651411065527445	1	-1,03613238E-005	278,516479	0	5,1573181515241997	2,2338163E-005
2	1	0	0	0	6,3610	-1,89607155	-1,89671648	-0,010091251305146376	1	-1,08041177E-005	278,516479	0	5,4304694644870157	1,91402432E-005
2	1	0	1	0	6,4020	-1,8755511	-1,87616742	-0,0090098374807894285	1	-1,11947147E-005	278,516479	0	5,683567956241321	1,69039631E-005
2	1	0	1	0	6,4428	-1,85517144	-1,85579407	-0,008142496810623095	1	-1,15440889E-005	278,516479	0	5,9206042509957824	1,5110797E-005
2	1	0	0	0	6,4842	-1,83446002	-1,83508718	-0,0073711833298065459	1	-1,18648504E-005	278,516479	0	6,1489694456880845	1,35267637E-005
2	1	0	0	0	6,5246	-1,81426239	-1,81488514	-0,0067076580823016435	1	-1,21490148E-005	278,516479	0	6,3616499492576922	1,21736293E-005
2	1	0	0	0	6,5654	-1,79386461	-1,79448879	-0,0060944905056781734	1	-1,24100152E-005	278,51651	0	6,5673431672512614	1,09364946E-005
2	1	0	1	0	6,6061	-1,77351713	-1,77418089	-0,0055453145076803795	1	-1,2646793E-005	278,516449	0	6,7643275960510106	9,83839072E-006
2	1	0	1	0	6,6467	-1,75319493	-1,75385571	-0,0050509742885488512	1	-1,28617958E-005	278,516479	0	6,9540034074467802	8,8586803E-006
2	1	0	0	0	6,7019	-1,72558427	-1,72620559	-0,0044781365783276851	1	-1,31250999E-005	278,516571	0	7,2017617835475328	7,73018473E-006
2	1	0	1	0	6,7575	-1,69779503	-1,69845176	-0,0039731721934740115	1	-1,33633903E-005	278,516479	0	7,442181641973847	6,7482415E-006
2	1	0	1	0	6,7980	-1,67757821	-1,67818975	-0,0036351722175037434	1	-1,35174732E-005	278,51651	0	7,613352464986281	6,10050893E-006
2	1	0	1	0	6,8389	-1,65708041	-1,65779197	-0,0032884866451767181	1	-1,36591452E-005	278,516449	0	7,7819841515874278	5,45162675E-006
2	1	0	1	0	6,8796	-1,63678944	-1,63739538	-0,0029288665715202118	1	-1,37858879E-005	278,516479	0	7,9459534814470234	4,79571281E-006
2	1	0	0	0	6,9201	-1,61649942	-1,61709917	-0,0025699090676339283	1	-1,38973492E-005	278,516479	0	8,104462303033143	4,1557978E-006
2	1	0	1	0	6,9608	-1,59615088	-1,59670496	-0,0021976768879622758	1	-1,39944077E-005	278,516479	0	8,2587220580781632	3,50904156E-006
2	1	0	0	0	7,0014	-1,57587814	-1,57645571	-0,0018394077567026253	1	-1,40764341E-005	278,516479	0	8,4070329263214016	2,89974491E-006
2	1	0	1	0	7,0422	-1,55543768	-1,55606306	-0,0015030721313792141	1	-1,41446317E-005	278,516479	0	8,551392724172736	2,33887499E-006
2	1	0	0	0	7,0834	-1,53488719	-1,53550053	-0,0011950220688535483	1	-1,42002255E-005	278,516479	0	8,6925700752042624	1,83495706E-006
2	1	0	0	0	7,1238	-1,51466227	-1,51527929	-0,00094019172275300147	1	-1,42432327E-005	278,516479	0	8,8277813838607117	1,42465308E-006
2	1	0	0	0	7,1645	-1,49429464	-1,4948653	-0,00071762124691433434	1	-1,42767503E-005	278,516479	0	8,9615864876880819	1,07274707E-006
2	1	0	0	0	7,2058	-1,47367573	-1,47423542	-0,00053106446490987245	1	-1,43025263E-005	278,516479	0	9,0952293194952358	7,82914015E-007
2	1	0	0	0	7,2462	-1,45345998	-1,45407557	-0,00039594678072644608	1	-1,43212164E-005	278,51651	0	9,225141758232983	5,75736522E-007
2	1	0	1	0	7,2875	-1,43279481	-1,43340456	-0,00027956046348603587	1	-1,43350562E-005	278,516479	0	9,3584511941165274	4,00723252E-007
2	1	0	1	0	7,3284	-1,41236448	-1,41300797	-0,00018467441742392886	1	-1,43445768E-005	278,516479	0	9,4908575408115942	2,60946422E-007
2	1	0	0	0	7,3694	-1,3918668	-1,39250219	-0,00011620743206722454	1	-1,43508514E-005	278,516479	0	9,6254522201799923	1,61819102E-007
2	1	0	1	0	7,4099	-1,37159944	-1,37217295	-6,7862832403807693E-005	1	-1,43545176E-005	278,516479	0	9,7608954105330752	9,31195459E-008
2	1	0	1	0	7,4512	-1,35095072	-1,35158587	-2,4685922111815248E-005	1	-1,43563566E-005	278,516479	0	9,9006438050995162	3,33651435E-008
2	1	0	0	0	7,4922	-1,33049619	-1,33110714	5,0009716333214208E-006	1	-1,43567086E-005	278,516479	0,0093627525921166643	9,9950459153796813	6,65682887E-009
2	1	0	0	0	7,5330	-1,31006444	-1,31070006	2,7997624667128051E-005	1	-1,43559946E-005	278,516479	0,03475799108713113	9,9950459153796813	3,66964876E-008
2	1	0	0	0	7,5741	-1,28949463	-1,29013658	4,7429209259470682E-005	1	-1,43544112E-005	278,516479	0,055889239030996774	9,9950459153796813	6,11901569E-008
2	1	0	0	0	7,6154	-1,26885784	-1,26948726	6,6350214981076352E-005	1	-1,43521584E-005	278,51651	0,074167703498295334	9,9950459153796813	8,42307557E-008
2	1	0	1	0	7,6564	-1,24838257	-1,24901152	7,7794287372383437E-005	1	-1,43493544E-005	278,516479	0,089934836054958144	9,9950459153796813	9,71659588E-008
2	1	0	1	0	7,6972	-1,22796452	-1,22857475	8,2732583292449139E-005	1	-1,43460893E-005	278,516479	0,10395827542425653	9,9950459153796813	1,0164316E-007
2	1	0	0	0	7,7385	-1,20729458	-1,20792413	9,5035995227157888E-005	1	-1,43423767E-005	278,516479	0,11678514407707728	9,9950459153796813	1,14796272E-007
2	1	0	1	0	7,7796	-1,18675089	-1,18735731	0,0001047881577879268	1	-1,43383086E-005	278,516479	0,12841834759217768	9,9950459153796813	1,24420978E-007
2	1	0	0	0	7,8202	-1,1664871	-1,16711438	0,00011319128540292125	1	-1,43339994E-005	278,516479	0,1390353845731139	9,9950459153796813	1,32107175E-007
2	1	0	1	0	7,8608	-1,14615536	-1,14678657	0,00011347918280596979	1	-1,43294301E-005	278,516479	0,14860682435756253	9,9950459153796813	1,30136399E-007
2	1	0	0	0	7,9017	-1,12569463	-1,12636316	0,00012194822930937443	1	-1,43245788E-005	278,516479	0,15758477275186362	9,9950459153796813	1,37357986E-007
2	1	0	0	0	7,9430	-1,10507107	-1,10572398	0,00013282655086173552	1	-1,43194884E-005	278,51651	0,16589123354552182	9,9950459153796813	1,46869496E-007
2	1	0	1	0	7,9832	-1,08497798	-1,08565295	0,00012962501338814179	1	-1,43143507E-005	278,51651	0,17330647103787322	9,9950459153796813	1,40727778E-007
2	1	0	1	0	8,0244	-1,06435299	-1,06497562	0,00013356073679269605	1	-1,43089192E-005	278,516479	0,18042244936369971	9,9950459153796813	1,42238932E-007
2	1	0	0	0	8,0657	-1,04369688	-1,04436111	0,0001396313075806197	1	-1,43033085E-005	278,516479	0,18714437509746554	9,9950459153796813	1,4582551E-007
2	1	0	1	0	8,1068	-1,02318239	-1,02384841	0,00014743815586758682	1	-1,42975732E-005	278,51651	0,19337736342662765	9,9950459153796813	1,50954321E-007
2	1	0	0	0	8,1475	-1,00283027	-1,00352252	0,00014605579211429037	1	-1,4291747E-005	278,516449	0,19928753674200029	9,9950459153796813	1,46570272E-007
2	1	0	1	0	8,1911	-0,981018186	-0,981748998	0,00014842115770250224	1	-1,42853523E-005	278,516479	0,2052427023289624	9,9950459153796813	1,4571232E-007
2	1	0	1	0	8,2359	-0,958616138	-0,959285378	0,00015384961224754102	1	-1,42786084E-005	278,516479	0,211031103283268	9,9950459153796813	1,47585681E-007
2	1	0	1	0	8,2804	-0,936370492	-0,937043905	0,00015596869587087616	1	-1,42717408E-005	278,516479	0,21657598839212387	9,9950459153796813	1,46149517E-007
2	1	0	1	0	8,3251	-0,914016008	-0,914699078	0,0001630979798551385	1	-1,42646559E-005	278,516479	0,22205053709151539	9,9950459153796813	1,49185567E-007
2	1	0	1	0	8,3690	-0,892061412	-0,892751217	0,00016394338016212502	1	-1,42575282E-005	278,51651	0,22724230548364544	9,9950459153796813	1,46360648E-007
2	1	0	1	0	8,4135	-0,869816124	-0,87049365	0,00016778168535552112	1	-1,42501231E-005	278,516479	0,23240215193745539	9,9950459153796813	1,46052898E-007
2	1	0	1	0	8,4567	-0,848191917	-0,848874211	0,00017127899586929194	1	-1,42427907E-005	278,516479	0,23723407710771146	9,9950459153796813	1,45394324E-007
2	1	0	0	0	8,5014	-0,825850546	-0,826557755	0,00017520745775036877	1	-1,423507E-005	278,516479	0,24208097128413504	9,9950459153796813	1,44819083E-007
2	1	0	0	0	8,5456	-0,803761303	-0,804344893	0,00017937430120795846	1	-1,42272756E-005	278,516479	0,24669953341722352	9,9950459153796813	1,442788E-007
2	1	0	0	0	8,5910	-0,781052709	-0,781647086	0,00018022747978560333	1	-1,42191511E-005	278,516479	0,25135627705878973	9,9950459153796813	1,40874278E-007
2	1	0	1	0	8,6357	-0,758706093	-0,759335816	0,00018494665236492323	1	-1,42109975E-005	278,516449	0,25585683063690877	9,9950459153796813	1,40436612E-007
2	1	0	1	0	8,6806	-0,736261308	-0,736866713	0,00018929778015556704	1	-1,42026529E-005	278,516479	0,26027408241281984	9,9950459153796813	1,39487227E-007
2	1	0	0	0	8,7256	-0,713759184	-0,714390039	0,00019310643784109603	1	-1,41941255E-005	278,516479	0,26465899910211171	9,9950459153796813	1,37953322E-007
2	1	0	0	0	8,7704	-0,691361248	-0,691999614	0,00019535159503547648	1	-1,41854798E-005	278,516479	0,26894805578694682	9,9950459153796813	1,35183228E-007
2	1	0	0	0	8,8155	-0,668803871	-0,669457436	0,00019902676201062944	1	-1,41766213E-005	278,516449	0,27321183770183773	9,9950459153796813	1,33239951E-007
2	1	0	1	0	8,8610	-0,646061242	-0,646663129	0,00020385014077698922	1	-1,41675064E-005	278,51651	0,27749631905564742	9,9950459153796813	1,31822375E-007
2	1	0	1	0	8,9065	-0,623306036	-0,623912811	0,00020586824956828237	1	-1,41581995E-005	278,516479	0,2817591463172311	9,9950459153796813	1,28443844E-007
2	1	0	0	0	8,9521	-0,600515962	-0,601114154	0,0002094518673186503	1	-1,41486971E-005	278,516479	0,2860222952815248	9,9950459153796813	1,25904478E-007
2	1	0	1	0	8,9972	-0,577970326	-0,57853812	0,00021445560145248515	1	-1,41391192E-005	278,516479	0,29019880636071603	9,9950459153796813	1,24070738E-007
2	1	0	0	0	9,0420	-0,555561244	-0,55617851	0,00021901717126600848	1	-1,41294349E-005	278,51651	0,29436141981201414	9,9950459153796813	1,21812647E-007
2	1	0	1	0	9,0868	-0,533168375	-0,533768296	0,00022274661104841827	1	-1,4119586E-005	278,516479	0,29848219914111981	9,9950459153796813	1,1889508E-007
2	1	0	1	0	9,1313	-0,510906041	-0,511525691	0,00022562191010978448	1	-1,41096125E-005	278,516479	0,30258622568658746	9,9950459153796813	1,15411403E-007
2	1	0	0	0	9,1715	-0,490779936	-0,491429418	0,0002309719707047992	1	-1,41004048E-005	278,516449	0,30631947687058912	9,9950459153796813	1,13506424E-007
2	1	0	0	0	9,2075	-0,472779959	-0,473447055	0,00023762218833966618	1	-1,40919601E-005	278,516449	0,30973885933826298	9,9950459153796813	1,12501525E-007
2	1	0	0	0	9,2435	-0,454779953	-0,455431044	0,00024614517990896493	1	-1,40832808E-005	278,516449	0,31327642076127482	9,9950459153796813	1,12102157E-007
2	1	0	0	0	9,2795	-0,436779916	-0,437414914	0,00025340014227325827	1	-1,40743059E-005	278,516449	0,31699772862279802	9,9950459153796813	1,10841E-007
2	1	0	0	0	9,3155	-0,418779939	-0,419449657	0,00026307058440454106	1	-1,406499E-005	278,516449	0,32096815866671699	9,9950459153796813	1,10344864E-007
2	1	0	0	0	9,3515	-0,400779933	-0,401435524	0,0002741749584390025	1	-1,4055302E-005	278,516449	0,3251717920885689	9,9950459153796813	1,10063567E-007
2	1	0	0	0	9,3875	-0,382779896	-0,383409947	0,00028394093638140634	1	-1,40452566E-005	278,516449	0,32958666304119744	9,9950459153796813	1,08865777E-007
2	1	0	0	0	9,4235	-0,364779919	-0,365433663	0,00029339528540773446	1	-1,40348839E-005	278,516449	0,33418768729456685	9,9950459153796813	1,07216515E-007
2	1	0	0	0	9,4595	-0,346779913	-0,34742257	0,00029990814296429293	1	-1,40242146E-005	278,516449	0,33890525258076691	9,9950459153796813	1,04194861E-007
2	1	0	0	0	9,4955	-0,328779906	-0,329405516	0,00030553488465114451	1	-1,40132979E-005	278,516449	0,34369438004132454	9,9950459153796813	1,00644876E-007
2	1	0	0	0	9,5315	-0,310779899	-0,311412573	0,00031175626904649715	1	-1,40021666E-005	278,516449	0,3485384084240944	9,9950459153796813	9,7084822E-008
2	1	0	0	0	9,5675	-0,292779893	-0,293382406	0,0003175856929200759	1	-1,39908407E-005	278,516449	0,35338530613598771	9,9950459153796813	9,31740516E-008
2	1	0	0	0	9,6035	-0,274779886	-0,275478989	0,00032304155245966483	1	-1,39793356E-005	278,516449	0,35828079340669766	9,9950459153796813	8,89911576E-008
2	1	0	0	0	9,6395	-0,256779879	-0,257415652	0,00032768165079974938	1	-1,39676258E-005	278,516449	0,36314533847984384	9,9950459153796813	8,43503827E-008
2	1	0	0	0	9,6755	-0,238779843	-0,239432707	0,00033444241427703706	1	-1,39556751E-005	278,516449	0,36810295675321114	9,9950459153796813	8,00764539E-008
2	1	0	0	0	9,7115	-0,220779881	-0,22142221	0,00034213291117543219	1	-1,39434915E-005	278,516449	0,37310102485310362	9,9950459153796813	7,57558283E-008
2	1	0	0	0	9,7475	-0,202779874	-0,20347102	0,00035090718428196787	1	-1,39310187E-005	278,516449	0,3782140680080576	9,9950459153796813	7,1399441E-008
2	1	0	0	0	9,7835	-0,184779868	-0,185444385	0,00036141855014492794	1	-1,39182112E-005	278,516449	0,38343532518950842	9,9950459153796813	6,70230378E-008
2	1	0	0	0	9,8195	-0,166779861	-0,167426318	0,00037310587990939482	1	-1,39050017E-005	278,516449	0,38884733863301056	9,9950459153796813	6,24677412E-008
2	1	0	0	0	9,8555	-0,148779854	-0,149484664	0,00038624551272828595	1	-1,38913301E-005	278,516449	0,39451293654374451	9,9950459153796813	5,7737779E-008
2	1	0	0	0	9,8915	-0,130779848	-0,131464064	0,00040148409701894029	1	-1,38771447E-005	278,516449	0,40041346261687949	9,9950459153796813	5,27807309E-008
2	1	0	0	0	9,9275	-0,112779826	-0,113498263	0,00041699904979970291	1	-1,38624064E-005	278,516449	0,40661112326103366	9,9950459153796813	4,7328669E-008
2	1	0	0	0	9,9635	-0,0947798193	-0,0954731554	0,00043231633756142355	1	-1,38471269E-005	278,516449	0,41304447490577715	9,9950459153796813	4,12746033E-008
2	1	0	0	0	9,9995	-0,0767798126	-0,0774897709	0,00044638064356436992	1	-1,38313262E-005	278,516449	0,4197194106513657	9,9950459153796813	3,45899345E-008
2	1	0	0	0	10,0355	-0,0587797984	-0,0595184453	0,00046132271122707302	1	-1,38149826E-005	278,516449	0,4266390531889735	9,9950459153796813	2,74572098E-008
2	1	0	0	0	10,0715	-0,0407797992	-0,0414827839	0,0004787724284489392	1	-1,37980351E-005	278,516449	0,4338154738735312	9,9950459153796813	1,98608134E-008
2	1	0	0	0	10,1075	-0,0227797907	-0,0234536603	0,00049875827766910426	1	-1,37804318E-005	278,516449	0,44129762327153837	9,9950459153796813	1,16977068E-008
2	1	0	0	0	10,1435	-0,00477978634	-0,00545418449	0,00051980614285029178	1	-1,37621164E-005	278,516449	0,44912526126178701	9,9950459153796813	2,83511858E-009
2	1	0	0	0	10,1795	0,0132202087	0,0126493294	0,00054156262192643571	1	-1,37429988E-005	278,516449	0,45730216894444826	9,9950459153796813	6,8504038E-009
2	1	0	0	0	10,2155	0,0312202051	0,0306392368	0,0005633726374298983	1	-1,37231073E-005	278,516449	0,46587133766609837	9,9950459153796813	1,72613071E-008
2	1	0	0	0	10,2515	0,0492201969	0,0486306511	0,00058512574545794163	1	-1,37024072E-005	278,516449	0,47479874260597837	9,9950459153796813	2,84550463E-008
2	1	0	0	0	10,2875	0,0672201887	0,0666743442	0,0006073864460512096	1	-1,36809203E-005	278,516449	0,48403847944657882	9,9950459153796813	4,04970919E-008
2	1	0	0	0	10,3235	0,0852201879	0,084643133	0,00062868723722132352	1	-1,36586841E-005	278,516449	0,49359873999423475	9,9950459153796813	5,32140589E-008
2	1	0	0	0	10,3595	0,103220165	0,102656163	0,00064737320847622899	1	-1,36357212E-005	278,516449	0,50340698497285555	9,9950459153796813	6,64568489E-008
2	1	0	0	0	10,3955	0,121220164	0,120667189	0,000666787879547312	1	-1,36120561E-005	278,516449	0,51345827104426854	9,9950459153796813	8,04594222E-008
2	1	0	0	0	10,4315	0,139220148	0,138649046	0,00068517064940016614	1	-1,35877026E-005	278,516449	0,52373536960550016	9,9950459153796813	9,49982564E-008
2	1	0	0	0	10,4675	0,157220125	0,15661937	0,00070415807403223501	1	-1,35626751E-005	278,516449	0,5342201048448809	9,9950459153796813	1,10284795E-007
2	1	0	1	0	10,5037	0,175320119	0,17474249	0,00072383070217759296	1	-1,35368273E-005	278,516449	0,54494960284044646	9,9950459153796813	1,26483982E-007
2	1	0	1	0	10,5397	0,19332011	0,192729384	0,00073958351970903219	1	-1,35104929E-005	278,516449	0,55578680312657645	9,9950459153796813	1,42539477E-007
2	1	0	1	0	10,5757	0,211320117	0,210707739	0,00075699137530113331	1	-1,34835445E-005	278,516449	0,5667716608804665	9,9950459153796813	1,59503941E-007
2	1	0	1	0	10,6117	0,229320124	0,228709683	0,00077221990300371021	1	-1,34559978E-005	278,516449	0,57787617823559373	9,9950459153796813	1,76614165E-007
2	1	0	1	0	10,6477	0,247320101	0,246713191	0,00078918221837691494	1	-1,34278671E-005	278,516449	0,58909881265817818	9,9950459153796813	1,9470167E-007
2	1	0	1	0	10,6837	0,265320092	0,264740288	0,00080601379051203558	1	-1,33991698E-005	278,516449	0,60041330529189734	9,9950459153796813	2,13384325E-007
2	1	0	1	0	10,7197	0,283320099	0,282678902	0,00082088046438481459	1	-1,33699004E-005	278,516449	0,61186169971716506	9,9950459153796813	2,32045593E-007
2	1	0	1	0	10,7557	0,301320106	0,300695002	0,00083752781522076006	1	-1,33400408E-005	278,516449	0,6233900604966583	9,9950459153796813	2,51840419E-007
2	1	0	1	0	10,7917	0,319320083	0,318735123	0,00085922061263270413	1	-1,33094918E-005	278,516449	0,63508166809911757	9,9950459153796813	2,73863776E-007
2	1	0	1	0	10,8277	0,33732006	0,336735129	0,00088753515603912525	1	-1,32780733E-005	278,516449	0,64706384978174259	9,9950459153796813	2,98864279E-007
2	1	0	1	0	10,8637	0,355320036	0,354722023	0,00093086047724299981	1	-1,32454197E-005	278,516449	0,65954623204504166	9,9950459153796813	3,30196713E-007
2	1	0	1	0	10,8997	0,373320073	0,372713417	0,00098936223051432	1	-1,32109462E-005	278,516449	0,67284540089464717	9,9950459153796813	3,68748573E-007
2	1	0	1	0	10,9357	0,39132005	0,390694767	0,0010696625076709678	1	-1,31739152E-005	278,516449	0,68737580115538112	9,9950459153796813	4,17911536E-007
2	1	0	1	0	10,9727	0,409776002	0,40922308	0,0011626837854191824	1	-1,31325005E-005	278,516479	0,70391647414753088	9,9950459153796813	4,75797037E-007
2	1	0	0	0	11,0202	0,433516145	0,432994545	0,0012431131056018819	1	-1,30750859E-005	278,516479	0,72704275846576333	9,9950459153796813	5,3826119E-007
2	1	0	0	0	11,0665	0,456672013	0,456125915	0,0012418312622594386	1	-1,30174121E-005	278,516479	0,74984435104078797	9,9950459153796813	5,66431424E-007
2	1	0	1	0	11,1141	0,48052004	0,479937106	0,0011895625185676019	1	-1,29595801E-005	278,516449	0,77179354311311347	9,9950459153796813	5,70915176E-007
2	1	0	1	0	11,1581	0,502420008	0,501841843	0,0011360391688592618	1	-1,29084583E-005	278,516449	0,79034712635418099	9,9950459153796813	5,70111979E-007
2	1	0	1	0	11,1950	0,520880103	0,520269394	0,0011024098843336138	1	-1,28671882E-005	278,51651	0,80469730102563302	9,9950459153796813	5,73550096E-007
2	1	0	1	0	11,2325	0,5396505	0,539066255	0,0010685236454175718	1	-1,28264965E-005	278,516479	0,8182871222368896	9,9950459153796813	5,7600505E-007
2	1	0	1	0	11,2693	0,558019996	0,557437599	0,0010462409962464781	1	-1,27875865E-005	278,516449	0,83087816688199488	9,9950459153796813	5,83214046E-007
2	1	0	1	0	11,3061	0,576420009	0,575843751	0,0010314597056285992	1	-1,27493622E-005	278,516449	0,84285687863094336	9,9950459153796813	5,93959612E-007
2	1	0	0	0	11,3427	0,594719887	0,594119728	0,0010236519847120208	1	-1,27118055E-005	278,516449	0,85431857439426726	9,9950459153796813	6,08171831E-007
2	1	0	0	0	11,3793	0,613043785	0,612432063	0,0010275265831892078	1	-1,26743344E-005	278,516479	0,8655276486191191	9,9950459153796813	6,29290241E-007
2	1	0	0	0	11,4159	0,63131994	0,630709589	0,0010501121648100118	1	-1,26363921E-005	278,516449	0,87680608870158413	9,9950459153796813	6,62315813E-007
2	1	0	0	0	11,4520	0,649374962	0,648798943	0,001105131941460516	1	-1,25975321E-005	278,51651	0,88844587419527309	9,9950459153796813	7,17008447E-007
2	1	0	0	0	11,4883	0,667519867	0,666924179	0,0012005647198820024	1	-1,25557335E-005	278,516449	0,9013648918601961	9,9950459153796813	8,00685655E-007
2	1	0	1	0	11,5245	0,685619891	0,685053408	0,0013200527268963958	1	-1,25101415E-005	278,516449	0,91595052039733619	9,9950459153796813	9,04306603E-007
2	1	0	1	0	11,5605	0,703619897	0,703034759	0,001422481286908809	1	-1,24606804E-005	278,516449	0,93222698731276928	9,9950459153796813	1,00005377E-006
2	1	0	1	0	11,5972	0,721969903	0,72142756	0,0014748836818254013	1	-1,24072512E-005	278,516479	0,94992036486983718	9,9950459153796813	1,06402172E-006
2	1	0	1	0	11,6338	0,740269899	0,739639044	0,0014728618064964413	1	-1,23530845E-005	278,51651	0,9676802474998007	9,9950459153796813	1,08938605E-006
2	1	0	0	0	11,6699	0,758320093	0,75770849	0,0014412527023308224	1	-1,23003765E-005	278,516449	0,98447644477384717	9,9950459153796813	1,09204939E-006
2	1	0	0	0	11,7059	0,776320338	0,775698602	0,0014033899305535454	1	-1,22491901E-005	278,516449	1,0002968363501405	9,9950459153796813	1,08860763E-006
2	1	0	0	0	11,7419	0,794320643	0,793743253	0,0013630045434638331	1	-1,21994717E-005	278,516449	1,0151309803620437	9,9950459153796813	1,08187567E-006
2	1	0	0	0	11,7779	0,812320948	0,811681032	0,0013298471301488086	1	-1,21510266E-005	278,516449	1,029180292295599	9,9950459153796813	1,07941173E-006
2	1	0	0	0	11,8139	0,830321312	0,829823077	0,0013043100085317478	1	-1,21035737E-005	278,516449	1,0424439981823518	9,9950459153796813	1,08234656E-006
2	1	0	0	0	11,8499	0,848321557	0,847816765	0,0012842737943461424	1	-1,20569648E-005	278,516449	1,0551809068411819	9,9950459153796813	1,08882887E-006
2	1	0	0	0	11,8859	0,866321743	0,865795434	0,0012739081499411922	1	-1,2010968E-005	278,516449	1,0674498101279006	9,9950459153796813	1,10294388E-006
2	1	0	0	0	11,9219	0,884322047	0,883806705	0,0012621019485610142	1	-1,19654051E-005	278,516449	1,0793041414234026	9,9950459153796813	1,11545421E-006
2	1	0	0	0	11,9579	0,902322352	0,9018206	0,001254354535747456	1	-1,19201259E-005	278,516449	1,090843908776912	9,9950459153796813	1,13120279E-006
2	1	0	0	0	11,9939	0,920322597	0,919839799	0,0012532020643304456	1	-1,1874984E-005	278,516449	1,102140702866176	9,9950459153796813	1,15274509E-006
2	1	0	0	0	12,0299	0,938322902	0,937808573	0,0012538854644414051	1	-1,18298576E-005	278,516449	1,1132804131396862	9,9950459153796813	1,17590457E-006
2	1	0	0	0	12,0659	0,956323266	0,955829322	0,0012618791892787426	1	-1,1784633E-005	278,516449	1,1242682813920163	9,9950459153796813	1,20614118E-006
2	1	0	0	0	12,1019	0,974323571	0,973808885	0,0012668911302793541	1	-1,17391864E-005	278,516449	1,1351988476812811	9,9950459153796813	1,2337099E-006
2	1	0	0	0	12,1379	0,992323816	0,991798699	0,0012758999612287898	1	-1,16934225E-005	278,516449	1,1460928161367701	9,9950459153796813	1,26543591E-006
2	0	0	0	1	12,1597	0,996720016	0,99620223	0,00091298695441597786	1	-1,16676792E-005	278,516449	1,1549459481116125	9,9950459153796813	9,09519656E-007
2	0	0	0	1	12,1957	0,978720009	0,978238463	0,00073330521454887706	1	-1,163856E-005	278,516449	1,1763488620690461	9,9950459153796813	7,17347348E-007
2	0	0	0	1	12,2317	0,960720003	0,960273564	0,00063344626430774554	1	-1,161406E-005	278,516449	1,1961436213578301	9,9950459153796813	6,08281709E-007
2	0	0	0	1	12,2677	0,942720056	0,942191184	0,00056301752251604506	1	-1,15925768E-005	278,516449	1,2150129086506269	9,9950459153796813	5,30470118E-007
2	0	0	0	1	12,3037	0,924720049	0,92420423	0,00050897144712723066	1	-1,15733583E-005	278,516449	1,2331423392039824	9,9950459153796813	4,70393559E-007
2	0	0	0	1	12,3397	0,906720042	0,906229973	0,00046279682882306394	1	-1,15559296E-005	278,516449	1,2507631012954365	9,9950459153796813	4,19400351E-007
2	0	0	0	1	12,3757	0,888719976	0,888204813	0,00042424895090227155	1	-1,15399735E-005	278,516449	1,2680432705459397	9,9950459153796813	3,76819969E-007
2	0	0	0	1	12,4117	0,870719969	0,870221078	0,00039201464488470336	1	-1,15252915E-005	278,516449	1,2850076796904653	9,9950459153796813	3,41139412E-007
2	0	0	0	1	12,4477	0,852719963	0,852169275	0,00036529479989380346	1	-1,15116618E-005	278,516449	1,3018164384100472	9,9950459153796813	3,11293007E-007
2	0	0	0	1	12,4837	0,834720016	0,834214091	0,00034028358699719187	1	-1,14989934E-005	278,516449	1,3184045104713509	9,9950459153796813	2,83869355E-007
2	0	0	0	1	12,5197	0,816720009	0,816224158	0,00031434602233335597	1	-1,14872373E-005	278,516449	1,3348672098896952	9,9950459153796813	2,56576811E-007
2	0	0	0	1	12,5557	0,798720062	0,798118114	0,00028659264211527414	1	-1,14764562E-005	278,516449	1,3512203266018162	9,9950459153796813	2,28734777E-007
2	0	0	0	1	12,5917	0,780720115	0,78012377	0,0002515876652481857	1	-1,14667255E-005	278,516449	1,3672806460749605	9,9950459153796813	1,96269511E-007
2	0	0	0	1	12,6277	0,762720108	0,762154341	0,00020636612460796384	1	-1,14584363E-005	278,516449	1,3829028876016371	9,9950459153796813	1,57282841E-007
2	0	0	0	1	12,6637	0,744719982	0,7441293	0,00013780011918272976	1	-1,1452199E-005	278,516449	1,3978232449776931	9,9950459153796813	1,02541108E-007
2	0	0	0	1	12,6997	0,726719916	0,726098061	3,0788447899902406E-005	1	-1,14489558E-005	278,516449	1,4115210533745646	9,9950459153796813	2,23554331E-008
2	0	0	0	1	12,7357	0,708720088	0,70809257	-7,9045813348587072E-005	1	-1,1449667E-005	278,516449	1,414304207301061	23,553221046815763	5,59717535E-008
2	0	0	0	1	12,7717	0,690720141	0,690153599	-0,00018960539352824973	1	-1,1454531E-005	278,516449	1,414304207301061	24,275929070472931	1,30856847E-007
2	0	0	0	1	12,8077	0,672720134	0,672159076	-0,00025438061210611254	1	-1,14626637E-005	278,516449	1,414304207301061	25,051800727981763	1,70984237E-007
2	0	0	0	1	12,8437	0,654720128	0,654131472	-0,00027435810963089696	1	-1,14723607E-005	278,516449	1,414304207301061	25,882126103435917	1,79466269E-007
2	0	0	0	1	12,8797	0,636720121	0,636112869	-0,00026585350454111843	1	-1,14821469E-005	278,516449	1,414304207301061	26,767758248462448	1,69112838E-007
2	0	0	0	1	12,9157	0,618720114	0,618143618	-0,00024485923227314826	1	-1,14913219E-005	278,516449	1,414304207301061	27,710961180435779	1,51358165E-007
2	0	0	0	1	12,9517	0,600720108	0,60016638	-0,00022784502942391942	1	-1,1499782E-005	278,516449	1,414304207301061	28,720770632267414	1,3674493E-007
2	0	0	0	1	12,9877	0,582720101	0,582136154	-0,00021274716472045094	1	-1,15076891E-005	278,516449	1,414304207301061	29,80777616882048	1,23847812E-007
2	0	0	0	1	13,0237	0,564720154	0,564122677	-0,00020616394635609168	1	-1,15152461E-005	278,516449	1,414304207301061	30,977135118854483	1,16301756E-007
2	0	0	0	1	13,0597	0,546720147	0,546149313	-0,000204312934776476	1	-1,1522623E-005	278,516449	1,414304207301061	32,237344378433242	1,11585372E-007
2	0	0	0	1	13,0957	0,5287202	0,52815485	-0,00020394273553997034	1	-1,15299281E-005	278,516449	1,414304207301061	33,604461319830381	1,07713348E-007
2	0	0	0	1	13,1317	0,510720193	0,510129333	-0,00020595120152297171	1	-1,15372641E-005	278,516449	1,414304207301061	35,093831229879238	1,05061751E-007
2	0	0	0	1	13,1677	0,492720187	0,492144972	-0,00020721760639886298	1	-1,15446919E-005	278,516449	1,414304207301061	36,716005078028115	1,01981101E-007
2	0	0	0	1	13,2037	0,47472024	0,474121302	-0,00021180742559809718	1	-1,15522489E-005	278,516449	1,414304207301061	38,497873456837421	1,00422412E-007
2	0	0	0	1	13,2397	0,456720233	0,456143498	-0,00021792998812710787	1	-1,1559966E-005	278,516449	1,414304207301061	40,454628256327059	9,94073446E-008
2	0	0	0	1	13,2757	0,438720196	0,438101828	-0,00022152479497238093	1	-1,1567854E-005	278,516449	1,414304207301061	42,62701601592999	9,70504175E-008
2	0	0	0	1	13,3117	0,42072019	0,420134515	-0,00022765741174991437	1	-1,15759167E-005	278,516449	1,414304207301061	45,033318525442099	9,56467332E-008
2	0	0	0	1	13,3477	0,402720243	0,402137607	-0,0002303108040639224	1	-1,15841658E-005	278,516449	1,414304207301061	47,729601744835514	9,26166379E-008
2	0	0	0	1	13,3837	0,384720236	0,384144664	-0,00023477666801035722	1	-1,15925668E-005	278,516449	1,414304207301061	50,765489237354515	9,01882018E-008
2	0	0	0	1	13,4197	0,366720229	0,366098493	-0,000237939294889524	1	-1,1601076E-005	278,516449	1,414304207301061	54,220703867560026	8,71092141E-008
2	0	0	0	1	13,4557	0,348720253	0,348117054	-0,00023845523040820666	1	-1,16096398E-005	278,516449	1,414304207301061	58,160733299360141	8,30103346E-008
2	0	0	0	1	13,4917	0,330720246	0,330175966	-0,00023876679830137645	1	-1,16182146E-005	278,516449	1,414304207301061	62,70158298529097	7,88350576E-008
2	0	0	0	1	13,5277	0,312720239	0,312129736	-0,0002360413852919032	1	-1,16267647E-005	278,516449	1,414304207301061	68,038056557974784	7,36755368E-008
2	0	0	0	1	13,5637	0,294720292	0,294111162	-0,00023533783313436442	1	-1,16352685E-005	278,516449	1,414304207301061	74,348520669140877	6,92154813E-008
2	0	0	0	1	13,5997	0,276720285	0,276161999	-0,00023330089245489002	1	-1,16437086E-005	278,516449	1,414304207301061	81,907077437531162	6,44288392E-008
2	0	0	0	1	13,6357	0,258720309	0,258162051	-0,0002326827681159953	1	-1,16520951E-005	278,516449	1,414304207301061	91,193123494032397	6,00698584E-008
2	0	0	0	1	13,6717	0,240720317	0,240104273	-0,00023225561421506618	1	-1,16604415E-005	278,516449	1,414304207301061	102,88056998450866	5,57655646E-008
2	0	0	0	1	13,7077	0,22272031	0,222100794	-0,00023008800364347056	1	-1,16687697E-005	278,516449	1,414304207301061	117,93230616136131	5,11027274E-008
2	0	0	0	1	13,7437	0,204720303	0,204123989	-0,00023165926941864467	1	-1,16771034E-005	278,516449	1,414304207301061	138,08121973420402	4,72872124E-008
2	0	0	0	1	13,7797	0,186720341	0,186148107	-0,00023330758743985402	1	-1,16854653E-005	278,516449	1,414304207301061	166,49312662524867	4,34297647E-008
2	0	0	0	1	13,8157	0,168720335	0,168171778	-0,00023502961220563075	1	-1,16938872E-005	278,516449	1,414304207301061	209,5663839142351	3,95253466E-008
2	0	0	0	1	13,8517	0,150720358	0,150145203	-0,00023855908781013606	1	-1,17023937E-005	278,516449	1,414304207301061	282,8674522720945	3,58185019E-008
2	0	0	0	1	13,8877	0,132720366	0,132162333	-0,00023934136688814282	1	-1,17110085E-005	278,516449	1,414304207301061	434,1964306035495	3,16319131E-008
2	0	0	0	1	13,9237	0,114720367	0,114144273	-0,00024385750659773392	1	-1,17197369E-005	278,516449	1,414304207301061	934,55902145293914	2,78349379E-008
2	0	0	0	1	13,9597	0,0967203677	0,0961689353	-0,00024754781022812947	1	-1,17285927E-005	278,516449	1,414304207301061	6302,5252137368806	2,38064093E-008
2	0	0	0	1	13,9957	0,0787203759	0,0781428218	-0,00025167865326867005	1	-1,1737573E-005	278,516449	1,414304207301061	719,7740389666016	1,96668797E-008
2	0	0	0	1	14,0317	0,0607203841	0,0602047034	-0,00025580613484072835	1	-1,17466761E-005	278,516449	1,414304207301061	382,78280093705901	1,54007331E-008
2	0	0	0	1	14,0677	0,0427203923	0,0421514586	-0,00025703566562565622	1	-1,17559093E-005	278,516449	1,414304207301061	260,2900697213784	1,08344285E-008
2	0	0	0	1	14,1037	0,0247204024	0,0241716038	-0,00026072931046284717	1	-1,17652598E-005	278,516449	1,414304207301061	197,44514672079184	6,30224539E-009
2	0	0	0	1	14,1397	0,00672041019	0,00613444671	-0,00026535598892139888	1	-1,17747277E-005	278,516449	1,414304207301061	158,98702599992365	1,62781222E-009
2	0	0	0	1	14,1534	-0,000129586508	-0,000707337866	-0,00026263893232680858	1	-1,17783566E-005	278,516663	1,414304207301061	148,0580745879639	1,85774465E-010